debugZR6I6U:debug0WFJR2,0,1580256413155,"{""rt"": 2924.3350000178907, ""responses"": ""{\""Q0\"":\""green, round\""}"", ""test_part"": ""instructions"", ""trial_type"": ""survey-text"", ""trial_index"": 0, ""time_elapsed"": 2950, ""internal_node_id"": ""0.0-0.0"", ""uniqueId"": ""debugZR6I6U:debug0WFJR2"", ""condition"": 0, ""counterbalance"": 0}"
debugZR6I6U:debug0WFJR2,1,1580256415153,"{""rt"": 1996.4550000149757, ""stimulus"": ""<p>This session will last for 10min. </p><p> In each trial, you will see a sequence consisting of A's, B's and/or C's. </p> <p> After seeing the sequence, press any key, and you will be asked </p><p> to judge how likely it is that the sequence came from a random process. </p><p> You don't need to calculate anything, we simply ask for your intuitive judgments. </p><p> Sequences are generated independently from each other. </p>"", ""button_pressed"": ""0"", ""test_part"": ""instructions"", ""trial_type"": ""html-button-response"", ""trial_index"": 1, ""time_elapsed"": 4948, ""internal_node_id"": ""0.0-1.0"", ""uniqueId"": ""debugZR6I6U:debug0WFJR2"", ""condition"": 0, ""counterbalance"": 0}"
debugZR6I6U:debug0WFJR2,2,1580256416821,"{""rt"": 666.0100000153761, ""stimulus"": ""<div style=\""font-size:40px;\"">B  A  C  B  C  B  A  B            </div>"", ""key_press"": 32, ""test_part"": ""test"", ""trial_type"": ""html-keyboard-response"", ""trial_index"": 2, ""time_elapsed"": 6616, ""internal_node_id"": ""0.0-2.0-0.0"", ""uniqueId"": ""debugZR6I6U:debug0WFJR2"", ""condition"": 0, ""counterbalance"": 0}"
debugZR6I6U:debug0WFJR2,3,1580256419301,"{""rt"": 1975.4900000116322, ""responses"": ""{\""Q0\"":9}"", ""question_order"": ""[0]"", ""test_part"": ""likert"", ""trial_type"": ""survey-likert"", ""trial_index"": 3, ""time_elapsed"": 9096, ""internal_node_id"": ""0.0-2.0-1.0"", ""uniqueId"": ""debugZR6I6U:debug0WFJR2"", ""condition"": 0, ""counterbalance"": 0}"
debugZR6I6U:debug0WFJR2,4,1580256419836,"{""rt"": 532.165000011446, ""stimulus"": ""<div style=\""font-size:40px;\"">C  B  B  A                        </div>"", ""key_press"": 32, ""test_part"": ""test"", ""trial_type"": ""html-keyboard-response"", ""trial_index"": 4, ""time_elapsed"": 9631, ""internal_node_id"": ""0.0-2.0-0.1"", ""uniqueId"": ""debugZR6I6U:debug0WFJR2"", ""condition"": 0, ""counterbalance"": 0}"
debugZR6I6U:debug0WFJR2,5,1580256421575,"{""rt"": 1238.0299999786075, ""responses"": ""{\""Q0\"":9}"", ""question_order"": ""[0]"", ""test_part"": ""likert"", ""trial_type"": ""survey-likert"", ""trial_index"": 5, ""time_elapsed"": 11370, ""internal_node_id"": ""0.0-2.0-1.1"", ""uniqueId"": ""debugZR6I6U:debug0WFJR2"", ""condition"": 0, ""counterbalance"": 0}"
debugZR6I6U:debug0WFJR2,6,1580256422126,"{""rt"": 547.7550000068732, ""stimulus"": ""<div style=\""font-size:40px;\"">A  A  B  B  C  B                  </div>"", ""key_press"": 32, ""test_part"": ""test"", ""trial_type"": ""html-keyboard-response"", ""trial_index"": 6, ""time_elapsed"": 11921, ""internal_node_id"": ""0.0-2.0-0.2"", ""uniqueId"": ""debugZR6I6U:debug0WFJR2"", ""condition"": 0, ""counterbalance"": 0}"
debugZR6I6U:debug0WFJR2,7,1580256424099,"{""rt"": 1471.9749999931082, ""responses"": ""{\""Q0\"":9}"", ""question_order"": ""[0]"", ""test_part"": ""likert"", ""trial_type"": ""survey-likert"", ""trial_index"": 7, ""time_elapsed"": 13894, ""internal_node_id"": ""0.0-2.0-1.2"", ""uniqueId"": ""debugZR6I6U:debug0WFJR2"", ""condition"": 0, ""counterbalance"": 0}"
debugZR6I6U:debug0WFJR2,8,1580256424543,"{""rt"": 439.9850000045262, ""stimulus"": ""<div style=\""font-size:40px;\"">B  C  A  A  A  A  B  A  A  A  B  B</div>"", ""key_press"": 32, ""test_part"": ""test"", ""trial_type"": ""html-keyboard-response"", ""trial_index"": 8, ""time_elapsed"": 14338, ""internal_node_id"": ""0.0-2.0-0.3"", ""uniqueId"": ""debugZR6I6U:debug0WFJR2"", ""condition"": 0, ""counterbalance"": 0}"
debugZR6I6U:debug0WFJR2,9,1580256425973,"{""rt"": 929.0949999995064, ""responses"": ""{\""Q0\"":8}"", ""question_order"": ""[0]"", ""test_part"": ""likert"", ""trial_type"": ""survey-likert"", ""trial_index"": 9, ""time_elapsed"": 15768, ""internal_node_id"": ""0.0-2.0-1.3"", ""uniqueId"": ""debugZR6I6U:debug0WFJR2"", ""condition"": 0, ""counterbalance"": 0}"
debugZR6I6U:debug0WFJR2,10,1580256426496,"{""rt"": 518.7600000062957, ""stimulus"": ""<div style=\""font-size:40px;\"">C  B  C  C  B  C  C  A  B  A      </div>"", ""key_press"": 32, ""test_part"": ""test"", ""trial_type"": ""html-keyboard-response"", ""trial_index"": 10, ""time_elapsed"": 16291, ""internal_node_id"": ""0.0-2.0-0.4"", ""uniqueId"": ""debugZR6I6U:debug0WFJR2"", ""condition"": 0, ""counterbalance"": 0}"
debugZR6I6U:debug0WFJR2,11,1580256428218,"{""rt"": 1220.2199999883305, ""responses"": ""{\""Q0\"":8}"", ""question_order"": ""[0]"", ""test_part"": ""likert"", ""trial_type"": ""survey-likert"", ""trial_index"": 11, ""time_elapsed"": 18013, ""internal_node_id"": ""0.0-2.0-1.4"", ""uniqueId"": ""debugZR6I6U:debug0WFJR2"", ""condition"": 0, ""counterbalance"": 0}"
debugZR6I6U:debug0WFJR2,12,1580256429707,"{""rt"": 1485.9700000088196, ""stimulus"": ""<p>Thanks for participating! Press \""q\"" to finish the experiment.</p>"", ""key_press"": 81, ""test_part"": ""instructions"", ""trial_type"": ""html-keyboard-response"", ""trial_index"": 12, ""time_elapsed"": 19502, ""internal_node_id"": ""0.0-3.0"", ""uniqueId"": ""debugZR6I6U:debug0WFJR2"", ""condition"": 0, ""counterbalance"": 0}"
debugMAIB30:debugPZQ5H5,0,1580256443946,"{""rt"": 2038.2499999832362, ""responses"": ""{\""Q0\"":\""green, round\""}"", ""test_part"": ""instructions"", ""trial_type"": ""survey-text"", ""trial_index"": 0, ""time_elapsed"": 2064, ""internal_node_id"": ""0.0-0.0"", ""uniqueId"": ""debugMAIB30:debugPZQ5H5"", ""condition"": 0, ""counterbalance"": 0}"
debugMAIB30:debugPZQ5H5,1,1580256444733,"{""rt"": 786.0449999861885, ""stimulus"": ""<p>This session will last for 10min. </p><p> In each trial, you will see a sequence consisting of A's, B's and/or C's. </p> <p> After seeing the sequence, press any key, and you will be asked </p><p> to judge how likely it is that the sequence came from a random process. </p><p> You don't need to calculate anything, we simply ask for your intuitive judgments. </p><p> Sequences are generated independently from each other. </p>"", ""button_pressed"": ""0"", ""test_part"": ""instructions"", ""trial_type"": ""html-button-response"", ""trial_index"": 1, ""time_elapsed"": 2851, ""internal_node_id"": ""0.0-1.0"", ""uniqueId"": ""debugMAIB30:debugPZQ5H5"", ""condition"": 0, ""counterbalance"": 0}"
debugMAIB30:debugPZQ5H5,2,1580256446713,"{""rt"": 974.4399999908637, ""stimulus"": ""<div style=\""font-size:40px;\"">A  A  B  B  C  B                  </div>"", ""key_press"": 65, ""test_part"": ""test"", ""trial_type"": ""html-keyboard-response"", ""trial_index"": 2, ""time_elapsed"": 4831, ""internal_node_id"": ""0.0-2.0-0.0"", ""uniqueId"": ""debugMAIB30:debugPZQ5H5"", ""condition"": 0, ""counterbalance"": 0}"
debugMAIB30:debugPZQ5H5,3,1580256449399,"{""rt"": 2183.8100000168197, ""responses"": ""{\""Q0\"":9}"", ""question_order"": ""[0]"", ""test_part"": ""likert"", ""trial_type"": ""survey-likert"", ""trial_index"": 3, ""time_elapsed"": 7517, ""internal_node_id"": ""0.0-2.0-1.0"", ""uniqueId"": ""debugMAIB30:debugPZQ5H5"", ""condition"": 0, ""counterbalance"": 0}"
debugMAIB30:debugPZQ5H5,4,1580256450010,"{""rt"": 607.7249999798369, ""stimulus"": ""<div style=\""font-size:40px;\"">B  C  A  A  A  A  B  A  A  A  B  B</div>"", ""key_press"": 32, ""test_part"": ""test"", ""trial_type"": ""html-keyboard-response"", ""trial_index"": 4, ""time_elapsed"": 8128, ""internal_node_id"": ""0.0-2.0-0.1"", ""uniqueId"": ""debugMAIB30:debugPZQ5H5"", ""condition"": 0, ""counterbalance"": 0}"
debugMAIB30:debugPZQ5H5,5,1580256452641,"{""rt"": 2128.484999993816, ""responses"": ""{\""Q0\"":8}"", ""question_order"": ""[0]"", ""test_part"": ""likert"", ""trial_type"": ""survey-likert"", ""trial_index"": 5, ""time_elapsed"": 10758, ""internal_node_id"": ""0.0-2.0-1.1"", ""uniqueId"": ""debugMAIB30:debugPZQ5H5"", ""condition"": 0, ""counterbalance"": 0}"
debugMAIB30:debugPZQ5H5,6,1580256453289,"{""rt"": 644.624999986263, ""stimulus"": ""<div style=\""font-size:40px;\"">C  B  B  A                        </div>"", ""key_press"": 32, ""test_part"": ""test"", ""trial_type"": ""html-keyboard-response"", ""trial_index"": 6, ""time_elapsed"": 11407, ""internal_node_id"": ""0.0-2.0-0.2"", ""uniqueId"": ""debugMAIB30:debugPZQ5H5"", ""condition"": 0, ""counterbalance"": 0}"
debugMAIB30:debugPZQ5H5,7,1580256454933,"{""rt"": 1143.5200000123587, ""responses"": ""{\""Q0\"":5}"", ""question_order"": ""[0]"", ""test_part"": ""likert"", ""trial_type"": ""survey-likert"", ""trial_index"": 7, ""time_elapsed"": 13051, ""internal_node_id"": ""0.0-2.0-1.2"", ""uniqueId"": ""debugMAIB30:debugPZQ5H5"", ""condition"": 0, ""counterbalance"": 0}"
debugMAIB30:debugPZQ5H5,8,1580256455345,"{""rt"": 407.8250000020489, ""stimulus"": ""<div style=\""font-size:40px;\"">B  A  C  B  C  B  A  B            </div>"", ""key_press"": 32, ""test_part"": ""test"", ""trial_type"": ""html-keyboard-response"", ""trial_index"": 8, ""time_elapsed"": 13462, ""internal_node_id"": ""0.0-2.0-0.3"", ""uniqueId"": ""debugMAIB30:debugPZQ5H5"", ""condition"": 0, ""counterbalance"": 0}"
debugMAIB30:debugPZQ5H5,9,1580256457731,"{""rt"": 1883.6750000191387, ""responses"": ""{\""Q0\"":8}"", ""question_order"": ""[0]"", ""test_part"": ""likert"", ""trial_type"": ""survey-likert"", ""trial_index"": 9, ""time_elapsed"": 15849, ""internal_node_id"": ""0.0-2.0-1.3"", ""uniqueId"": ""debugMAIB30:debugPZQ5H5"", ""condition"": 0, ""counterbalance"": 0}"
debugMAIB30:debugPZQ5H5,10,1580256458218,"{""rt"": 484.1299999970943, ""stimulus"": ""<div style=\""font-size:40px;\"">C  B  C  C  B  C  C  A  B  A      </div>"", ""key_press"": 32, ""test_part"": ""test"", ""trial_type"": ""html-keyboard-response"", ""trial_index"": 10, ""time_elapsed"": 16336, ""internal_node_id"": ""0.0-2.0-0.4"", ""uniqueId"": ""debugMAIB30:debugPZQ5H5"", ""condition"": 0, ""counterbalance"": 0}"
debugMAIB30:debugPZQ5H5,11,1580256460022,"{""rt"": 1302.9249999963213, ""responses"": ""{\""Q0\"":9}"", ""question_order"": ""[0]"", ""test_part"": ""likert"", ""trial_type"": ""survey-likert"", ""trial_index"": 11, ""time_elapsed"": 18140, ""internal_node_id"": ""0.0-2.0-1.4"", ""uniqueId"": ""debugMAIB30:debugPZQ5H5"", ""condition"": 0, ""counterbalance"": 0}"
debugMAIB30:debugPZQ5H5,12,1580256461165,"{""rt"": 1139.3950000056066, ""stimulus"": ""<p>Thanks for participating! Press \""q\"" to finish the experiment.</p>"", ""key_press"": 81, ""test_part"": ""instructions"", ""trial_type"": ""html-keyboard-response"", ""trial_index"": 12, ""time_elapsed"": 19283, ""internal_node_id"": ""0.0-3.0"", ""uniqueId"": ""debugMAIB30:debugPZQ5H5"", ""condition"": 0, ""counterbalance"": 0}"
debugELFABD:debugOKHYVQ,0,1580409747516,"{""rt"": 1758.049999945797, ""responses"": ""{\""Q0\"":\""fd\""}"", ""test_part"": ""botcheck"", ""trial_type"": ""survey-text"", ""trial_index"": 0, ""time_elapsed"": 1786, ""internal_node_id"": ""0.0-0.0"", ""uniqueId"": ""debugELFABD:debugOKHYVQ"", ""condition"": 0, ""counterbalance"": 0}"
debugELFABD:debugOKHYVQ,1,1580409748566,"{""rt"": 1049.2999999551103, ""stimulus"": ""<p>This session will last for 10min. </p><p> In each trial, you will see a sequence consisting of A's, B's and/or C's. </p> <p> After seeing the sequence, press any key, and you will be asked </p><p> to judge how likely it is that the sequence came from a random process. </p><p> You don't need to calculate anything, we simply ask for your intuitive judgments. </p><p> Sequences are generated independently from each other. </p>"", ""button_pressed"": ""0"", ""test_part"": ""instructions"", ""trial_type"": ""html-button-response"", ""trial_index"": 1, ""time_elapsed"": 2837, ""internal_node_id"": ""0.0-1.0"", ""uniqueId"": ""debugELFABD:debugOKHYVQ"", ""condition"": 0, ""counterbalance"": 0}"
debugELFABD:debugOKHYVQ,2,1580409751951,"{""rt"": 2381.0750000411645, ""stimulus"": ""<div style=\""font-size:40px;\"">A  A  B  B  C  B                  </div>"", ""key_press"": 32, ""test_part"": ""test"", ""trial_type"": ""html-keyboard-response"", ""trial_index"": 2, ""time_elapsed"": 6221, ""internal_node_id"": ""0.0-2.0-0.0"", ""uniqueId"": ""debugELFABD:debugOKHYVQ"", ""condition"": 0, ""counterbalance"": 0}"
debugELFABD:debugOKHYVQ,3,1580409753738,"{""rt"": 1284.7450000117533, ""responses"": ""{\""Q0\"":5}"", ""question_order"": ""[0]"", ""test_part"": ""likert"", ""trial_type"": ""survey-likert"", ""trial_index"": 3, ""time_elapsed"": 8009, ""internal_node_id"": ""0.0-2.0-1.0"", ""uniqueId"": ""debugELFABD:debugOKHYVQ"", ""condition"": 0, ""counterbalance"": 0}"
debugELFABD:debugOKHYVQ,4,1580409754855,"{""rt"": 1113.6399999959394, ""stimulus"": ""<div style=\""font-size:40px;\"">B  C  A  A  A  A  B  A  A  A  B  B</div>"", ""key_press"": 18, ""test_part"": ""test"", ""trial_type"": ""html-keyboard-response"", ""trial_index"": 4, ""time_elapsed"": 9126, ""internal_node_id"": ""0.0-2.0-0.1"", ""uniqueId"": ""debugELFABD:debugOKHYVQ"", ""condition"": 0, ""counterbalance"": 0}"
debugELFABD:debugOKHYVQ,5,1580409759424,"{""rt"": 4066.56499998644, ""responses"": ""{\""Q0\"":3}"", ""question_order"": ""[0]"", ""test_part"": ""likert"", ""trial_type"": ""survey-likert"", ""trial_index"": 5, ""time_elapsed"": 13695, ""internal_node_id"": ""0.0-2.0-1.1"", ""uniqueId"": ""debugELFABD:debugOKHYVQ"", ""condition"": 0, ""counterbalance"": 0}"
debugELFABD:debugOKHYVQ,6,1580409760014,"{""rt"": 586.7299999808893, ""stimulus"": ""<div style=\""font-size:40px;\"">C  B  B  A                        </div>"", ""key_press"": 32, ""test_part"": ""test"", ""trial_type"": ""html-keyboard-response"", ""trial_index"": 6, ""time_elapsed"": 14285, ""internal_node_id"": ""0.0-2.0-0.2"", ""uniqueId"": ""debugELFABD:debugOKHYVQ"", ""condition"": 0, ""counterbalance"": 0}"
debugELFABD:debugOKHYVQ,7,1580409761880,"{""rt"": 1364.4549999735318, ""responses"": ""{\""Q0\"":6}"", ""question_order"": ""[0]"", ""test_part"": ""likert"", ""trial_type"": ""survey-likert"", ""trial_index"": 7, ""time_elapsed"": 16151, ""internal_node_id"": ""0.0-2.0-1.2"", ""uniqueId"": ""debugELFABD:debugOKHYVQ"", ""condition"": 0, ""counterbalance"": 0}"
debugELFABD:debugOKHYVQ,8,1580409763446,"{""rt"": 1563.445000036154, ""stimulus"": ""<p>Thanks for participating! Press \""q\"" to finish the experiment.</p>"", ""key_press"": 81, ""test_part"": ""instructions"", ""trial_type"": ""html-keyboard-response"", ""trial_index"": 8, ""time_elapsed"": 17717, ""internal_node_id"": ""0.0-3.0"", ""uniqueId"": ""debugELFABD:debugOKHYVQ"", ""condition"": 0, ""counterbalance"": 0}"
A1YHQGZN0TBSJT:34T446B1C4BP71G0ASMKONQ9CTZC0B,0,1580425481935,"{""rt"": 10539.634999993723, ""responses"": ""{\""undefined\"":\""de\""}"", ""trial_type"": ""survey-text"", ""trial_index"": 0, ""time_elapsed"": 10571, ""internal_node_id"": ""0.0-0.0"", ""uniqueId"": ""A1YHQGZN0TBSJT:34T446B1C4BP71G0ASMKONQ9CTZC0B"", ""condition"": 0, ""counterbalance"": 0}"
A1YHQGZN0TBSJT:34T446B1C4BP71G0ASMKONQ9CTZC0B,1,1580425482709,"{""rt"": 770, ""key_press"": 32, ""trial_type"": ""text"", ""trial_index"": 1, ""time_elapsed"": 11342, ""internal_node_id"": ""0.0-1.0"", ""uniqueId"": ""A1YHQGZN0TBSJT:34T446B1C4BP71G0ASMKONQ9CTZC0B"", ""condition"": 0, ""counterbalance"": 0}"
A1YHQGZN0TBSJT:34T446B1C4BP71G0ASMKONQ9CTZC0B,2,1580425484292,"{""rt"": 582, ""stimulus"": ""<div style=\""font-size:40px;\"">C  B  C  C  B  C  C  A  B  A      </div>"", ""key_press"": 32, ""test_part"": ""test"", ""trial_type"": ""single-stim"", ""trial_index"": 2, ""time_elapsed"": 12928, ""internal_node_id"": ""0.0-2.0-0.0"", ""uniqueId"": ""A1YHQGZN0TBSJT:34T446B1C4BP71G0ASMKONQ9CTZC0B"", ""condition"": 0, ""counterbalance"": 0}"
A1YHQGZN0TBSJT:34T446B1C4BP71G0ASMKONQ9CTZC0B,3,1580425486282,"{""rt"": 1988.359999959357, ""responses"": ""{\""undefined\"":5}"", ""question_order"": ""[0]"", ""trial_type"": ""survey-likert"", ""trial_index"": 3, ""time_elapsed"": 14918, ""internal_node_id"": ""0.0-2.0-1.0"", ""uniqueId"": ""A1YHQGZN0TBSJT:34T446B1C4BP71G0ASMKONQ9CTZC0B"", ""condition"": 0, ""counterbalance"": 0}"
A1YHQGZN0TBSJT:34T446B1C4BP71G0ASMKONQ9CTZC0B,4,1580425486753,"{""rt"": 471, ""stimulus"": ""<div style=\""font-size:40px;\"">A  A  B  B  C  B                  </div>"", ""key_press"": 32, ""test_part"": ""test"", ""trial_type"": ""single-stim"", ""trial_index"": 4, ""time_elapsed"": 15389, ""internal_node_id"": ""0.0-2.0-0.1"", ""uniqueId"": ""A1YHQGZN0TBSJT:34T446B1C4BP71G0ASMKONQ9CTZC0B"", ""condition"": 0, ""counterbalance"": 0}"
A1YHQGZN0TBSJT:34T446B1C4BP71G0ASMKONQ9CTZC0B,5,1580425487869,"{""rt"": 1115.5199999921024, ""responses"": ""{\""undefined\"":5}"", ""question_order"": ""[0]"", ""trial_type"": ""survey-likert"", ""trial_index"": 5, ""time_elapsed"": 16505, ""internal_node_id"": ""0.0-2.0-1.1"", ""uniqueId"": ""A1YHQGZN0TBSJT:34T446B1C4BP71G0ASMKONQ9CTZC0B"", ""condition"": 0, ""counterbalance"": 0}"
A1YHQGZN0TBSJT:34T446B1C4BP71G0ASMKONQ9CTZC0B,6,1580425488303,"{""rt"": 434, ""stimulus"": ""<div style=\""font-size:40px;\"">B  C  A  A  A  A  B  A  A  A  B  B</div>"", ""key_press"": 32, ""test_part"": ""test"", ""trial_type"": ""single-stim"", ""trial_index"": 6, ""time_elapsed"": 16939, ""internal_node_id"": ""0.0-2.0-0.2"", ""uniqueId"": ""A1YHQGZN0TBSJT:34T446B1C4BP71G0ASMKONQ9CTZC0B"", ""condition"": 0, ""counterbalance"": 0}"
A1YHQGZN0TBSJT:34T446B1C4BP71G0ASMKONQ9CTZC0B,7,1580425489351,"{""rt"": 1047.5399999995716, ""responses"": ""{\""undefined\"":5}"", ""question_order"": ""[0]"", ""trial_type"": ""survey-likert"", ""trial_index"": 7, ""time_elapsed"": 17987, ""internal_node_id"": ""0.0-2.0-1.2"", ""uniqueId"": ""A1YHQGZN0TBSJT:34T446B1C4BP71G0ASMKONQ9CTZC0B"", ""condition"": 0, ""counterbalance"": 0}"
A1YHQGZN0TBSJT:34T446B1C4BP71G0ASMKONQ9CTZC0B,8,1580425489919,"{""rt"": 568, ""stimulus"": ""<div style=\""font-size:40px;\"">B  A  C  B  C  B  A  B            </div>"", ""key_press"": 32, ""test_part"": ""test"", ""trial_type"": ""single-stim"", ""trial_index"": 8, ""time_elapsed"": 18555, ""internal_node_id"": ""0.0-2.0-0.3"", ""uniqueId"": ""A1YHQGZN0TBSJT:34T446B1C4BP71G0ASMKONQ9CTZC0B"", ""condition"": 0, ""counterbalance"": 0}"
A1YHQGZN0TBSJT:34T446B1C4BP71G0ASMKONQ9CTZC0B,9,1580425491776,"{""rt"": 1856.0949999955483, ""responses"": ""{\""undefined\"":6}"", ""question_order"": ""[0]"", ""trial_type"": ""survey-likert"", ""trial_index"": 9, ""time_elapsed"": 20412, ""internal_node_id"": ""0.0-2.0-1.3"", ""uniqueId"": ""A1YHQGZN0TBSJT:34T446B1C4BP71G0ASMKONQ9CTZC0B"", ""condition"": 0, ""counterbalance"": 0}"
A1YHQGZN0TBSJT:34T446B1C4BP71G0ASMKONQ9CTZC0B,10,1580425492176,"{""rt"": 400, ""stimulus"": ""<div style=\""font-size:40px;\"">C  B  B  A                        </div>"", ""key_press"": 32, ""test_part"": ""test"", ""trial_type"": ""single-stim"", ""trial_index"": 10, ""time_elapsed"": 20812, ""internal_node_id"": ""0.0-2.0-0.4"", ""uniqueId"": ""A1YHQGZN0TBSJT:34T446B1C4BP71G0ASMKONQ9CTZC0B"", ""condition"": 0, ""counterbalance"": 0}"
A1YHQGZN0TBSJT:34T446B1C4BP71G0ASMKONQ9CTZC0B,11,1580425493942,"{""rt"": 1765.5950000043958, ""responses"": ""{\""undefined\"":5}"", ""question_order"": ""[0]"", ""trial_type"": ""survey-likert"", ""trial_index"": 11, ""time_elapsed"": 22578, ""internal_node_id"": ""0.0-2.0-1.4"", ""uniqueId"": ""A1YHQGZN0TBSJT:34T446B1C4BP71G0ASMKONQ9CTZC0B"", ""condition"": 0, ""counterbalance"": 0}"
A1YHQGZN0TBSJT:34T446B1C4BP71G0ASMKONQ9CTZC0B,12,1580425495081,"{""rt"": 1139, ""stimulus"": ""<p>Thanks for participating! Press \""q\"" to finish the experiment.</p>"", ""key_press"": 81, ""trial_type"": ""single-stim"", ""trial_index"": 12, ""time_elapsed"": 23717, ""internal_node_id"": ""0.0-3.0"", ""uniqueId"": ""A1YHQGZN0TBSJT:34T446B1C4BP71G0ASMKONQ9CTZC0B"", ""condition"": 0, ""counterbalance"": 0}"
A18B4N676PVF21:3HUTX6F6VYKXC0GHFKZP2BD5Y522OI,0,1580426777854,"{""rt"": 3856.834999998682, ""responses"": ""{\""Q0\"":\""hjk\""}"", ""test_part"": ""botcheck"", ""trial_type"": ""survey-text"", ""trial_index"": 0, ""time_elapsed"": 3883, ""internal_node_id"": ""0.0-0.0"", ""uniqueId"": ""A18B4N676PVF21:3HUTX6F6VYKXC0GHFKZP2BD5Y522OI"", ""condition"": 0, ""counterbalance"": 0}"
A18B4N676PVF21:3HUTX6F6VYKXC0GHFKZP2BD5Y522OI,1,1580426779022,"{""rt"": 1165.9749999998894, ""stimulus"": ""<p>This session will last for 10min. </p><p> In each trial, you will see a sequence consisting of A's, B's and/or C's. </p> <p> After seeing the sequence, press any key, and you will be asked </p><p> to judge how likely it is that the sequence came from a random process. </p><p> You don't need to calculate anything, we simply ask for your intuitive judgments. </p><p> Sequences are generated independently from each other. </p>"", ""button_pressed"": ""0"", ""test_part"": ""instructions"", ""trial_type"": ""html-button-response"", ""trial_index"": 1, ""time_elapsed"": 5050, ""internal_node_id"": ""0.0-1.0"", ""uniqueId"": ""A18B4N676PVF21:3HUTX6F6VYKXC0GHFKZP2BD5Y522OI"", ""condition"": 0, ""counterbalance"": 0}"
A18B4N676PVF21:3HUTX6F6VYKXC0GHFKZP2BD5Y522OI,2,1580426781049,"{""rt"": 1023.9549999987503, ""stimulus"": ""<div style=\""font-size:40px;\"">A  A  B  B  C  B                  </div>"", ""key_press"": 32, ""test_part"": ""test"", ""trial_type"": ""html-keyboard-response"", ""trial_index"": 2, ""time_elapsed"": 7078, ""internal_node_id"": ""0.0-2.0-0.0"", ""uniqueId"": ""A18B4N676PVF21:3HUTX6F6VYKXC0GHFKZP2BD5Y522OI"", ""condition"": 0, ""counterbalance"": 0}"
A18B4N676PVF21:3HUTX6F6VYKXC0GHFKZP2BD5Y522OI,3,1580426783515,"{""rt"": 1962.325000000419, ""responses"": ""{\""Q0\"":5}"", ""question_order"": ""[0]"", ""test_part"": ""likert"", ""trial_type"": ""survey-likert"", ""trial_index"": 3, ""time_elapsed"": 9544, ""internal_node_id"": ""0.0-2.0-1.0"", ""uniqueId"": ""A18B4N676PVF21:3HUTX6F6VYKXC0GHFKZP2BD5Y522OI"", ""condition"": 0, ""counterbalance"": 0}"
A18B4N676PVF21:3HUTX6F6VYKXC0GHFKZP2BD5Y522OI,4,1580426783997,"{""rt"": 477.9550000002928, ""stimulus"": ""<div style=\""font-size:40px;\"">C  B  B  A                        </div>"", ""key_press"": 32, ""test_part"": ""test"", ""trial_type"": ""html-keyboard-response"", ""trial_index"": 4, ""time_elapsed"": 10026, ""internal_node_id"": ""0.0-2.0-0.1"", ""uniqueId"": ""A18B4N676PVF21:3HUTX6F6VYKXC0GHFKZP2BD5Y522OI"", ""condition"": 0, ""counterbalance"": 0}"
A18B4N676PVF21:3HUTX6F6VYKXC0GHFKZP2BD5Y522OI,5,1580426786031,"{""rt"": 1533.545000000231, ""responses"": ""{\""Q0\"":8}"", ""question_order"": ""[0]"", ""test_part"": ""likert"", ""trial_type"": ""survey-likert"", ""trial_index"": 5, ""time_elapsed"": 12060, ""internal_node_id"": ""0.0-2.0-1.1"", ""uniqueId"": ""A18B4N676PVF21:3HUTX6F6VYKXC0GHFKZP2BD5Y522OI"", ""condition"": 0, ""counterbalance"": 0}"
A18B4N676PVF21:3HUTX6F6VYKXC0GHFKZP2BD5Y522OI,6,1580426787109,"{""rt"": 1074.2850000006001, ""stimulus"": ""<div style=\""font-size:40px;\"">B  C  A  A  A  A  B  A  A  A  B  B</div>"", ""key_press"": 32, ""test_part"": ""test"", ""trial_type"": ""html-keyboard-response"", ""trial_index"": 6, ""time_elapsed"": 13138, ""internal_node_id"": ""0.0-2.0-0.2"", ""uniqueId"": ""A18B4N676PVF21:3HUTX6F6VYKXC0GHFKZP2BD5Y522OI"", ""condition"": 0, ""counterbalance"": 0}"
A18B4N676PVF21:3HUTX6F6VYKXC0GHFKZP2BD5Y522OI,7,1580426789005,"{""rt"": 1394.0000000002328, ""responses"": ""{\""Q0\"":4}"", ""question_order"": ""[0]"", ""test_part"": ""likert"", ""trial_type"": ""survey-likert"", ""trial_index"": 7, ""time_elapsed"": 15034, ""internal_node_id"": ""0.0-2.0-1.2"", ""uniqueId"": ""A18B4N676PVF21:3HUTX6F6VYKXC0GHFKZP2BD5Y522OI"", ""condition"": 0, ""counterbalance"": 0}"
A18B4N676PVF21:3HUTX6F6VYKXC0GHFKZP2BD5Y522OI,8,1580426790423,"{""rt"": 1414.7549999997864, ""stimulus"": ""<p>Thanks for participating! Press \""q\"" to finish the experiment.</p>"", ""key_press"": 81, ""test_part"": ""instructions"", ""trial_type"": ""html-keyboard-response"", ""trial_index"": 8, ""time_elapsed"": 16452, ""internal_node_id"": ""0.0-3.0"", ""uniqueId"": ""A18B4N676PVF21:3HUTX6F6VYKXC0GHFKZP2BD5Y522OI"", ""condition"": 0, ""counterbalance"": 0}"
debugX7KRTO:debug9QPIXV,0,1580494071400,"{""rt"": 2348.8149999757297, ""responses"": ""{\""Q0\"":\""fds\""}"", ""test_part"": ""botcheck"", ""trial_type"": ""survey-text"", ""trial_index"": 0, ""time_elapsed"": 2375, ""internal_node_id"": ""0.0-0.0"", ""uniqueId"": ""debugX7KRTO:debug9QPIXV"", ""condition"": 0, ""counterbalance"": 0}"
debugX7KRTO:debug9QPIXV,1,1580494080895,"{""rt"": 9493.774999980815, ""stimulus"": ""<p>This session will last for 10min. </p><p> In each trial, you will see a sequence consisting of A's, B's and/or C's. </p> <p> After seeing the sequence, press any key, and you will be asked </p><p> to judge how likely it is that the sequence came from a random process. </p><p> You don't need to calculate anything, we simply ask for your intuitive judgments. </p><p> Sequences are generated independently from each other. </p>"", ""button_pressed"": ""0"", ""test_part"": ""instructions"", ""trial_type"": ""html-button-response"", ""trial_index"": 1, ""time_elapsed"": 11871, ""internal_node_id"": ""0.0-1.0"", ""uniqueId"": ""debugX7KRTO:debug9QPIXV"", ""condition"": 0, ""counterbalance"": 0}"
debugX7KRTO:debug9QPIXV,2,1580494088760,"{""rt"": 6862.2099999920465, ""stimulus"": ""<div style=\""font-size:40px;\"">B  B  B  B  B  C  B  C  B  C  A  A                        </div>"", ""key_press"": 32, ""test_part"": ""test"", ""trial_type"": ""html-keyboard-response"", ""trial_index"": 2, ""time_elapsed"": 19736, ""internal_node_id"": ""0.0-2.0-0.0"", ""uniqueId"": ""debugX7KRTO:debug9QPIXV"", ""condition"": 0, ""counterbalance"": 0}"
debugX7KRTO:debug9QPIXV,3,1580494137351,"{""rt"": 48088.95000000484, ""responses"": ""{\""Q0\"":6}"", ""question_order"": ""[0]"", ""test_part"": ""likert"", ""trial_type"": ""survey-likert"", ""trial_index"": 3, ""time_elapsed"": 68327, ""internal_node_id"": ""0.0-2.0-1.0"", ""uniqueId"": ""debugX7KRTO:debug9QPIXV"", ""condition"": 0, ""counterbalance"": 0}"
debugX7KRTO:debug9QPIXV,4,1580494138082,"{""rt"": 727.3299999651499, ""stimulus"": ""<div style=\""font-size:40px;\"">A  A  B  A  A  B  A  A                                    </div>"", ""key_press"": 32, ""test_part"": ""test"", ""trial_type"": ""html-keyboard-response"", ""trial_index"": 4, ""time_elapsed"": 69058, ""internal_node_id"": ""0.0-2.0-0.1"", ""uniqueId"": ""debugX7KRTO:debug9QPIXV"", ""condition"": 0, ""counterbalance"": 0}"
debugX7KRTO:debug9QPIXV,5,1580494139678,"{""rt"": 1094.39000004204, ""responses"": ""{\""Q0\"":7}"", ""question_order"": ""[0]"", ""test_part"": ""likert"", ""trial_type"": ""survey-likert"", ""trial_index"": 5, ""time_elapsed"": 70654, ""internal_node_id"": ""0.0-2.0-1.1"", ""uniqueId"": ""debugX7KRTO:debug9QPIXV"", ""condition"": 0, ""counterbalance"": 0}"
debugX7KRTO:debug9QPIXV,6,1580494154068,"{""rt"": 14385.234999994282, ""stimulus"": ""<div style=\""font-size:40px;\"">C  C  C  C  C  A  A  A  A  A  A  A  A  A  C  B  C  B  C  B</div>"", ""key_press"": 32, ""test_part"": ""test"", ""trial_type"": ""html-keyboard-response"", ""trial_index"": 6, ""time_elapsed"": 85044, ""internal_node_id"": ""0.0-2.0-0.2"", ""uniqueId"": ""debugX7KRTO:debug9QPIXV"", ""condition"": 0, ""counterbalance"": 0}"
debugX7KRTO:debug9QPIXV,7,1580494156469,"{""rt"": 1894.2149999784306, ""responses"": ""{\""Q0\"":7}"", ""question_order"": ""[0]"", ""test_part"": ""likert"", ""trial_type"": ""survey-likert"", ""trial_index"": 7, ""time_elapsed"": 87445, ""internal_node_id"": ""0.0-2.0-1.2"", ""uniqueId"": ""debugX7KRTO:debug9QPIXV"", ""condition"": 0, ""counterbalance"": 0}"
debugX7KRTO:debug9QPIXV,8,1580494157739,"{""rt"": 1265.0199999916367, ""stimulus"": ""<div style=\""font-size:40px;\"">A  A  A  A  A  A  A  A  A  A  A  A  B  B                  </div>"", ""key_press"": 32, ""test_part"": ""test"", ""trial_type"": ""html-keyboard-response"", ""trial_index"": 8, ""time_elapsed"": 88715, ""internal_node_id"": ""0.0-2.0-0.3"", ""uniqueId"": ""debugX7KRTO:debug9QPIXV"", ""condition"": 0, ""counterbalance"": 0}"
debugX7KRTO:debug9QPIXV,9,1580494159829,"{""rt"": 1583.2650000229478, ""responses"": ""{\""Q0\"":5}"", ""question_order"": ""[0]"", ""test_part"": ""likert"", ""trial_type"": ""survey-likert"", ""trial_index"": 9, ""time_elapsed"": 90805, ""internal_node_id"": ""0.0-2.0-1.3"", ""uniqueId"": ""debugX7KRTO:debug9QPIXV"", ""condition"": 0, ""counterbalance"": 0}"
debugX7KRTO:debug9QPIXV,10,1580494163294,"{""rt"": 3459.2049999628216, ""stimulus"": ""<div style=\""font-size:40px;\"">A  C  B  A  C  B  A  C  B  A  C  B  A  C                  </div>"", ""key_press"": 32, ""test_part"": ""test"", ""trial_type"": ""html-keyboard-response"", ""trial_index"": 10, ""time_elapsed"": 94270, ""internal_node_id"": ""0.0-2.0-0.4"", ""uniqueId"": ""debugX7KRTO:debug9QPIXV"", ""condition"": 0, ""counterbalance"": 0}"
debugX7KRTO:debug9QPIXV,11,1580494165573,"{""rt"": 1776.7250000033528, ""responses"": ""{\""Q0\"":6}"", ""question_order"": ""[0]"", ""test_part"": ""likert"", ""trial_type"": ""survey-likert"", ""trial_index"": 11, ""time_elapsed"": 96549, ""internal_node_id"": ""0.0-2.0-1.4"", ""uniqueId"": ""debugX7KRTO:debug9QPIXV"", ""condition"": 0, ""counterbalance"": 0}"
debugX7KRTO:debug9QPIXV,12,1580494166647,"{""rt"": 1067.2100000083447, ""stimulus"": ""<div style=\""font-size:40px;\"">C  A  C  A                                                </div>"", ""key_press"": 32, ""test_part"": ""test"", ""trial_type"": ""html-keyboard-response"", ""trial_index"": 12, ""time_elapsed"": 97622, ""internal_node_id"": ""0.0-2.0-0.5"", ""uniqueId"": ""debugX7KRTO:debug9QPIXV"", ""condition"": 0, ""counterbalance"": 0}"
debugX7KRTO:debug9QPIXV,13,1580494170415,"{""rt"": 3266.989999974612, ""responses"": ""{\""Q0\"":2}"", ""question_order"": ""[0]"", ""test_part"": ""likert"", ""trial_type"": ""survey-likert"", ""trial_index"": 13, ""time_elapsed"": 101391, ""internal_node_id"": ""0.0-2.0-1.5"", ""uniqueId"": ""debugX7KRTO:debug9QPIXV"", ""condition"": 0, ""counterbalance"": 0}"
debugX7KRTO:debug9QPIXV,14,1580494173499,"{""rt"": 3078.8850000244565, ""stimulus"": ""<div style=\""font-size:40px;\"">B  A  C  B  A  C  B  A  C  B  A  C  B  A  C  B  A  C  B  A</div>"", ""key_press"": 32, ""test_part"": ""test"", ""trial_type"": ""html-keyboard-response"", ""trial_index"": 14, ""time_elapsed"": 104475, ""internal_node_id"": ""0.0-2.0-0.6"", ""uniqueId"": ""debugX7KRTO:debug9QPIXV"", ""condition"": 0, ""counterbalance"": 0}"
debugX7KRTO:debug9QPIXV,15,1580494176260,"{""rt"": 2259.0649999910966, ""responses"": ""{\""Q0\"":2}"", ""question_order"": ""[0]"", ""test_part"": ""likert"", ""trial_type"": ""survey-likert"", ""trial_index"": 15, ""time_elapsed"": 107236, ""internal_node_id"": ""0.0-2.0-1.6"", ""uniqueId"": ""debugX7KRTO:debug9QPIXV"", ""condition"": 0, ""counterbalance"": 0}"
debugX7KRTO:debug9QPIXV,16,1580494177806,"{""rt"": 1540.7499999855645, ""stimulus"": ""<div style=\""font-size:40px;\"">B  B  B  B  C  A                                          </div>"", ""key_press"": 32, ""test_part"": ""test"", ""trial_type"": ""html-keyboard-response"", ""trial_index"": 16, ""time_elapsed"": 108782, ""internal_node_id"": ""0.0-2.0-0.7"", ""uniqueId"": ""debugX7KRTO:debug9QPIXV"", ""condition"": 0, ""counterbalance"": 0}"
debugX7KRTO:debug9QPIXV,17,1580494179710,"{""rt"": 1402.5849999743514, ""responses"": ""{\""Q0\"":5}"", ""question_order"": ""[0]"", ""test_part"": ""likert"", ""trial_type"": ""survey-likert"", ""trial_index"": 17, ""time_elapsed"": 110686, ""internal_node_id"": ""0.0-2.0-1.7"", ""uniqueId"": ""debugX7KRTO:debug9QPIXV"", ""condition"": 0, ""counterbalance"": 0}"
debugX7KRTO:debug9QPIXV,18,1580494183142,"{""rt"": 3427.7649999712594, ""stimulus"": ""<div style=\""font-size:40px;\"">C  C  B  C  C  B  C  C  C  C  C  C  C  C                  </div>"", ""key_press"": 32, ""test_part"": ""test"", ""trial_type"": ""html-keyboard-response"", ""trial_index"": 18, ""time_elapsed"": 114118, ""internal_node_id"": ""0.0-2.0-0.8"", ""uniqueId"": ""debugX7KRTO:debug9QPIXV"", ""condition"": 0, ""counterbalance"": 0}"
debugX7KRTO:debug9QPIXV,19,1580494185857,"{""rt"": 2212.539999978617, ""responses"": ""{\""Q0\"":2}"", ""question_order"": ""[0]"", ""test_part"": ""likert"", ""trial_type"": ""survey-likert"", ""trial_index"": 19, ""time_elapsed"": 116833, ""internal_node_id"": ""0.0-2.0-1.8"", ""uniqueId"": ""debugX7KRTO:debug9QPIXV"", ""condition"": 0, ""counterbalance"": 0}"
debugX7KRTO:debug9QPIXV,20,1580494186654,"{""rt"": 791.9750000000931, ""stimulus"": ""<div style=\""font-size:40px;\"">C  C  C  C                                                </div>"", ""key_press"": 32, ""test_part"": ""test"", ""trial_type"": ""html-keyboard-response"", ""trial_index"": 20, ""time_elapsed"": 117630, ""internal_node_id"": ""0.0-2.0-0.9"", ""uniqueId"": ""debugX7KRTO:debug9QPIXV"", ""condition"": 0, ""counterbalance"": 0}"
debugX7KRTO:debug9QPIXV,21,1580494188937,"{""rt"": 1780.5899999802932, ""responses"": ""{\""Q0\"":1}"", ""question_order"": ""[0]"", ""test_part"": ""likert"", ""trial_type"": ""survey-likert"", ""trial_index"": 21, ""time_elapsed"": 119913, ""internal_node_id"": ""0.0-2.0-1.9"", ""uniqueId"": ""debugX7KRTO:debug9QPIXV"", ""condition"": 0, ""counterbalance"": 0}"
debugX7KRTO:debug9QPIXV,22,1580494191423,"{""rt"": 2480.6299999472685, ""stimulus"": ""<div style=\""font-size:40px;\"">C  B  C  B  C  B  C  B  C  B  C  B  C  B  C  C  C  C  C  C</div>"", ""key_press"": 32, ""test_part"": ""test"", ""trial_type"": ""html-keyboard-response"", ""trial_index"": 22, ""time_elapsed"": 122399, ""internal_node_id"": ""0.0-2.0-0.10"", ""uniqueId"": ""debugX7KRTO:debug9QPIXV"", ""condition"": 0, ""counterbalance"": 0}"
debugX7KRTO:debug9QPIXV,23,1580494194316,"{""rt"": 2390.5749999685213, ""responses"": ""{\""Q0\"":2}"", ""question_order"": ""[0]"", ""test_part"": ""likert"", ""trial_type"": ""survey-likert"", ""trial_index"": 23, ""time_elapsed"": 125292, ""internal_node_id"": ""0.0-2.0-1.10"", ""uniqueId"": ""debugX7KRTO:debug9QPIXV"", ""condition"": 0, ""counterbalance"": 0}"
debugX7KRTO:debug9QPIXV,24,1580494197827,"{""rt"": 3505.669999984093, ""stimulus"": ""<div style=\""font-size:40px;\"">A  A  C  A  B  A  B  A  C  A  A  C  B  A  A  C            </div>"", ""key_press"": 32, ""test_part"": ""test"", ""trial_type"": ""html-keyboard-response"", ""trial_index"": 24, ""time_elapsed"": 128803, ""internal_node_id"": ""0.0-2.0-0.11"", ""uniqueId"": ""debugX7KRTO:debug9QPIXV"", ""condition"": 0, ""counterbalance"": 0}"
debugX7KRTO:debug9QPIXV,25,1580494199689,"{""rt"": 1358.7849999894388, ""responses"": ""{\""Q0\"":2}"", ""question_order"": ""[0]"", ""test_part"": ""likert"", ""trial_type"": ""survey-likert"", ""trial_index"": 25, ""time_elapsed"": 130664, ""internal_node_id"": ""0.0-2.0-1.11"", ""uniqueId"": ""debugX7KRTO:debug9QPIXV"", ""condition"": 0, ""counterbalance"": 0}"
debugX7KRTO:debug9QPIXV,26,1580494201088,"{""rt"": 1393.5700000147335, ""stimulus"": ""<div style=\""font-size:40px;\"">C  B  C  B  C  B  C  B  C  B  C  B                        </div>"", ""key_press"": 32, ""test_part"": ""test"", ""trial_type"": ""html-keyboard-response"", ""trial_index"": 26, ""time_elapsed"": 132064, ""internal_node_id"": ""0.0-2.0-0.12"", ""uniqueId"": ""debugX7KRTO:debug9QPIXV"", ""condition"": 0, ""counterbalance"": 0}"
debugX7KRTO:debug9QPIXV,27,1580494204940,"{""rt"": 3350.6649999762885, ""responses"": ""{\""Q0\"":2}"", ""question_order"": ""[0]"", ""test_part"": ""likert"", ""trial_type"": ""survey-likert"", ""trial_index"": 27, ""time_elapsed"": 135916, ""internal_node_id"": ""0.0-2.0-1.12"", ""uniqueId"": ""debugX7KRTO:debug9QPIXV"", ""condition"": 0, ""counterbalance"": 0}"
debugX7KRTO:debug9QPIXV,28,1580494206833,"{""rt"": 1887.0600000373088, ""stimulus"": ""<div style=\""font-size:40px;\"">C  B  C  C  B  C  C  B  C  C  B  C  C  B  C  C  B  C  C  B</div>"", ""key_press"": 32, ""test_part"": ""test"", ""trial_type"": ""html-keyboard-response"", ""trial_index"": 28, ""time_elapsed"": 137809, ""internal_node_id"": ""0.0-2.0-0.13"", ""uniqueId"": ""debugX7KRTO:debug9QPIXV"", ""condition"": 0, ""counterbalance"": 0}"
debugX7KRTO:debug9QPIXV,29,1580494208713,"{""rt"": 1377.7999999583699, ""responses"": ""{\""Q0\"":2}"", ""question_order"": ""[0]"", ""test_part"": ""likert"", ""trial_type"": ""survey-likert"", ""trial_index"": 29, ""time_elapsed"": 139688, ""internal_node_id"": ""0.0-2.0-1.13"", ""uniqueId"": ""debugX7KRTO:debug9QPIXV"", ""condition"": 0, ""counterbalance"": 0}"
debugX7KRTO:debug9QPIXV,30,1580494210488,"{""rt"": 1770.5100000021048, ""stimulus"": ""<div style=\""font-size:40px;\"">C  A  C  C  B  B  B  C                                    </div>"", ""key_press"": 32, ""test_part"": ""test"", ""trial_type"": ""html-keyboard-response"", ""trial_index"": 30, ""time_elapsed"": 141464, ""internal_node_id"": ""0.0-2.0-0.14"", ""uniqueId"": ""debugX7KRTO:debug9QPIXV"", ""condition"": 0, ""counterbalance"": 0}"
debugX7KRTO:debug9QPIXV,31,1580494213118,"{""rt"": 2126.094999955967, ""responses"": ""{\""Q0\"":3}"", ""question_order"": ""[0]"", ""test_part"": ""likert"", ""trial_type"": ""survey-likert"", ""trial_index"": 31, ""time_elapsed"": 144094, ""internal_node_id"": ""0.0-2.0-1.14"", ""uniqueId"": ""debugX7KRTO:debug9QPIXV"", ""condition"": 0, ""counterbalance"": 0}"
debugX7KRTO:debug9QPIXV,32,1580494214627,"{""rt"": 1503.2950000022538, ""stimulus"": ""<div style=\""font-size:40px;\"">B  A  B  A                                                </div>"", ""key_press"": 32, ""test_part"": ""test"", ""trial_type"": ""html-keyboard-response"", ""trial_index"": 32, ""time_elapsed"": 145603, ""internal_node_id"": ""0.0-2.0-0.15"", ""uniqueId"": ""debugX7KRTO:debug9QPIXV"", ""condition"": 0, ""counterbalance"": 0}"
debugX7KRTO:debug9QPIXV,33,1580494216578,"{""rt"": 1449.170000036247, ""responses"": ""{\""Q0\"":3}"", ""question_order"": ""[0]"", ""test_part"": ""likert"", ""trial_type"": ""survey-likert"", ""trial_index"": 33, ""time_elapsed"": 147554, ""internal_node_id"": ""0.0-2.0-1.15"", ""uniqueId"": ""debugX7KRTO:debug9QPIXV"", ""condition"": 0, ""counterbalance"": 0}"
debugX7KRTO:debug9QPIXV,34,1580494218732,"{""rt"": 2149.069999984931, ""stimulus"": ""<div style=\""font-size:40px;\"">A  B  A  B  A  A                                          </div>"", ""key_press"": 32, ""test_part"": ""test"", ""trial_type"": ""html-keyboard-response"", ""trial_index"": 34, ""time_elapsed"": 149708, ""internal_node_id"": ""0.0-2.0-0.16"", ""uniqueId"": ""debugX7KRTO:debug9QPIXV"", ""condition"": 0, ""counterbalance"": 0}"
debugX7KRTO:debug9QPIXV,35,1580494221144,"{""rt"": 1910.1950000040233, ""responses"": ""{\""Q0\"":4}"", ""question_order"": ""[0]"", ""test_part"": ""likert"", ""trial_type"": ""survey-likert"", ""trial_index"": 35, ""time_elapsed"": 152120, ""internal_node_id"": ""0.0-2.0-1.16"", ""uniqueId"": ""debugX7KRTO:debug9QPIXV"", ""condition"": 0, ""counterbalance"": 0}"
debugX7KRTO:debug9QPIXV,36,1580494222848,"{""rt"": 1697.8399999788962, ""stimulus"": ""<div style=\""font-size:40px;\"">C  C  C  C  C  C  C  B  B  B  C  A  B  B  B  B  A  A      </div>"", ""key_press"": 32, ""test_part"": ""test"", ""trial_type"": ""html-keyboard-response"", ""trial_index"": 36, ""time_elapsed"": 153824, ""internal_node_id"": ""0.0-2.0-0.17"", ""uniqueId"": ""debugX7KRTO:debug9QPIXV"", ""condition"": 0, ""counterbalance"": 0}"
debugX7KRTO:debug9QPIXV,37,1580494225408,"{""rt"": 2057.6299999956973, ""responses"": ""{\""Q0\"":2}"", ""question_order"": ""[0]"", ""test_part"": ""likert"", ""trial_type"": ""survey-likert"", ""trial_index"": 37, ""time_elapsed"": 156384, ""internal_node_id"": ""0.0-2.0-1.17"", ""uniqueId"": ""debugX7KRTO:debug9QPIXV"", ""condition"": 0, ""counterbalance"": 0}"
debugX7KRTO:debug9QPIXV,38,1580494226803,"{""rt"": 1389.3800000078045, ""stimulus"": ""<div style=\""font-size:40px;\"">B  C  A  A  C  B  B  C                                    </div>"", ""key_press"": 32, ""test_part"": ""test"", ""trial_type"": ""html-keyboard-response"", ""trial_index"": 38, ""time_elapsed"": 157778, ""internal_node_id"": ""0.0-2.0-0.18"", ""uniqueId"": ""debugX7KRTO:debug9QPIXV"", ""condition"": 0, ""counterbalance"": 0}"
debugX7KRTO:debug9QPIXV,39,1580494228640,"{""rt"": 1335.785000002943, ""responses"": ""{\""Q0\"":2}"", ""question_order"": ""[0]"", ""test_part"": ""likert"", ""trial_type"": ""survey-likert"", ""trial_index"": 39, ""time_elapsed"": 159616, ""internal_node_id"": ""0.0-2.0-1.18"", ""uniqueId"": ""debugX7KRTO:debug9QPIXV"", ""condition"": 0, ""counterbalance"": 0}"
debugX7KRTO:debug9QPIXV,40,1580494229751,"{""rt"": 1106.4900000346825, ""stimulus"": ""<div style=\""font-size:40px;\"">C  B  B  C  C  A  C  A  C  A                              </div>"", ""key_press"": 32, ""test_part"": ""test"", ""trial_type"": ""html-keyboard-response"", ""trial_index"": 40, ""time_elapsed"": 160727, ""internal_node_id"": ""0.0-2.0-0.19"", ""uniqueId"": ""debugX7KRTO:debug9QPIXV"", ""condition"": 0, ""counterbalance"": 0}"
debugX7KRTO:debug9QPIXV,41,1580494231640,"{""rt"": 1385.115000011865, ""responses"": ""{\""Q0\"":3}"", ""question_order"": ""[0]"", ""test_part"": ""likert"", ""trial_type"": ""survey-likert"", ""trial_index"": 41, ""time_elapsed"": 162616, ""internal_node_id"": ""0.0-2.0-1.19"", ""uniqueId"": ""debugX7KRTO:debug9QPIXV"", ""condition"": 0, ""counterbalance"": 0}"
debugX7KRTO:debug9QPIXV,42,1580494233129,"{""rt"": 1483.040000020992, ""stimulus"": ""<div style=\""font-size:40px;\"">B  C  B  C  B  C                                          </div>"", ""key_press"": 32, ""test_part"": ""test"", ""trial_type"": ""html-keyboard-response"", ""trial_index"": 42, ""time_elapsed"": 164105, ""internal_node_id"": ""0.0-2.0-0.20"", ""uniqueId"": ""debugX7KRTO:debug9QPIXV"", ""condition"": 0, ""counterbalance"": 0}"
debugX7KRTO:debug9QPIXV,43,1580494235460,"{""rt"": 1824.51000000583, ""responses"": ""{\""Q0\"":3}"", ""question_order"": ""[0]"", ""test_part"": ""likert"", ""trial_type"": ""survey-likert"", ""trial_index"": 43, ""time_elapsed"": 166436, ""internal_node_id"": ""0.0-2.0-1.20"", ""uniqueId"": ""debugX7KRTO:debug9QPIXV"", ""condition"": 0, ""counterbalance"": 0}"
debugX7KRTO:debug9QPIXV,44,1580494236314,"{""rt"": 848.3250000281259, ""stimulus"": ""<div style=\""font-size:40px;\"">C  C  C  A  B  A  B  A  B  A  B  A  B  A  B  C  B  B      </div>"", ""key_press"": 32, ""test_part"": ""test"", ""trial_type"": ""html-keyboard-response"", ""trial_index"": 44, ""time_elapsed"": 167290, ""internal_node_id"": ""0.0-2.0-0.21"", ""uniqueId"": ""debugX7KRTO:debug9QPIXV"", ""condition"": 0, ""counterbalance"": 0}"
debugX7KRTO:debug9QPIXV,45,1580494240004,"{""rt"": 3185.68499997491, ""responses"": ""{\""Q0\"":3}"", ""question_order"": ""[0]"", ""test_part"": ""likert"", ""trial_type"": ""survey-likert"", ""trial_index"": 45, ""time_elapsed"": 170980, ""internal_node_id"": ""0.0-2.0-1.21"", ""uniqueId"": ""debugX7KRTO:debug9QPIXV"", ""condition"": 0, ""counterbalance"": 0}"
debugX7KRTO:debug9QPIXV,46,1580494242565,"{""rt"": 2556.319999974221, ""stimulus"": ""<div style=\""font-size:40px;\"">B  B  C  C  C  C  C  C  C  C  A  C  B  A  B  A  B  A  B  A</div>"", ""key_press"": 32, ""test_part"": ""test"", ""trial_type"": ""html-keyboard-response"", ""trial_index"": 46, ""time_elapsed"": 173541, ""internal_node_id"": ""0.0-2.0-0.22"", ""uniqueId"": ""debugX7KRTO:debug9QPIXV"", ""condition"": 0, ""counterbalance"": 0}"
debugX7KRTO:debug9QPIXV,47,1580494244789,"{""rt"": 1721.5699999942444, ""responses"": ""{\""Q0\"":2}"", ""question_order"": ""[0]"", ""test_part"": ""likert"", ""trial_type"": ""survey-likert"", ""trial_index"": 47, ""time_elapsed"": 175764, ""internal_node_id"": ""0.0-2.0-1.22"", ""uniqueId"": ""debugX7KRTO:debug9QPIXV"", ""condition"": 0, ""counterbalance"": 0}"
debugX7KRTO:debug9QPIXV,48,1580494246337,"{""rt"": 1543.9050000277348, ""stimulus"": ""<div style=\""font-size:40px;\"">A  A  C  A  C  C  A  C  C  A                              </div>"", ""key_press"": 32, ""test_part"": ""test"", ""trial_type"": ""html-keyboard-response"", ""trial_index"": 48, ""time_elapsed"": 177313, ""internal_node_id"": ""0.0-2.0-0.23"", ""uniqueId"": ""debugX7KRTO:debug9QPIXV"", ""condition"": 0, ""counterbalance"": 0}"
debugX7KRTO:debug9QPIXV,49,1580494249129,"{""rt"": 2290.640000021085, ""responses"": ""{\""Q0\"":2}"", ""question_order"": ""[0]"", ""test_part"": ""likert"", ""trial_type"": ""survey-likert"", ""trial_index"": 49, ""time_elapsed"": 180105, ""internal_node_id"": ""0.0-2.0-1.23"", ""uniqueId"": ""debugX7KRTO:debug9QPIXV"", ""condition"": 0, ""counterbalance"": 0}"
debugX7KRTO:debug9QPIXV,50,1580494250319,"{""rt"": 1185.3700000210665, ""stimulus"": ""<div style=\""font-size:40px;\"">A  A  A  A  A  A  A  A  A  A                              </div>"", ""key_press"": 32, ""test_part"": ""test"", ""trial_type"": ""html-keyboard-response"", ""trial_index"": 50, ""time_elapsed"": 181295, ""internal_node_id"": ""0.0-2.0-0.24"", ""uniqueId"": ""debugX7KRTO:debug9QPIXV"", ""condition"": 0, ""counterbalance"": 0}"
debugX7KRTO:debug9QPIXV,51,1580494252238,"{""rt"": 1417.119999998249, ""responses"": ""{\""Q0\"":0}"", ""question_order"": ""[0]"", ""test_part"": ""likert"", ""trial_type"": ""survey-likert"", ""trial_index"": 51, ""time_elapsed"": 183214, ""internal_node_id"": ""0.0-2.0-1.24"", ""uniqueId"": ""debugX7KRTO:debug9QPIXV"", ""condition"": 0, ""counterbalance"": 0}"
debugX7KRTO:debug9QPIXV,52,1580494253661,"{""rt"": 1417.9799999692477, ""stimulus"": ""<div style=\""font-size:40px;\"">B  B  A  A  B  B  A  C  A  C  A  C                        </div>"", ""key_press"": 32, ""test_part"": ""test"", ""trial_type"": ""html-keyboard-response"", ""trial_index"": 52, ""time_elapsed"": 184637, ""internal_node_id"": ""0.0-2.0-0.25"", ""uniqueId"": ""debugX7KRTO:debug9QPIXV"", ""condition"": 0, ""counterbalance"": 0}"
debugX7KRTO:debug9QPIXV,53,1580494256692,"{""rt"": 2527.8650000109337, ""responses"": ""{\""Q0\"":1}"", ""question_order"": ""[0]"", ""test_part"": ""likert"", ""trial_type"": ""survey-likert"", ""trial_index"": 53, ""time_elapsed"": 187668, ""internal_node_id"": ""0.0-2.0-1.25"", ""uniqueId"": ""debugX7KRTO:debug9QPIXV"", ""condition"": 0, ""counterbalance"": 0}"
debugX7KRTO:debug9QPIXV,54,1580494258395,"{""rt"": 1699.6000000508502, ""stimulus"": ""<div style=\""font-size:40px;\"">A  A  B  B  C  B                                          </div>"", ""key_press"": 32, ""test_part"": ""test"", ""trial_type"": ""html-keyboard-response"", ""trial_index"": 54, ""time_elapsed"": 189371, ""internal_node_id"": ""0.0-2.0-0.26"", ""uniqueId"": ""debugX7KRTO:debug9QPIXV"", ""condition"": 0, ""counterbalance"": 0}"
debugX7KRTO:debug9QPIXV,55,1580494261110,"{""rt"": 2212.050000031013, ""responses"": ""{\""Q0\"":2}"", ""question_order"": ""[0]"", ""test_part"": ""likert"", ""trial_type"": ""survey-likert"", ""trial_index"": 55, ""time_elapsed"": 192086, ""internal_node_id"": ""0.0-2.0-1.26"", ""uniqueId"": ""debugX7KRTO:debug9QPIXV"", ""condition"": 0, ""counterbalance"": 0}"
debugX7KRTO:debug9QPIXV,56,1580494262438,"{""rt"": 1322.5300000049174, ""stimulus"": ""<div style=\""font-size:40px;\"">C  A  A  A  C  C  C  B  A  B  A  B  B  B                  </div>"", ""key_press"": 32, ""test_part"": ""test"", ""trial_type"": ""html-keyboard-response"", ""trial_index"": 56, ""time_elapsed"": 193414, ""internal_node_id"": ""0.0-2.0-0.27"", ""uniqueId"": ""debugX7KRTO:debug9QPIXV"", ""condition"": 0, ""counterbalance"": 0}"
debugX7KRTO:debug9QPIXV,57,1580494266321,"{""rt"": 3378.659999987576, ""responses"": ""{\""Q0\"":1}"", ""question_order"": ""[0]"", ""test_part"": ""likert"", ""trial_type"": ""survey-likert"", ""trial_index"": 57, ""time_elapsed"": 197297, ""internal_node_id"": ""0.0-2.0-1.27"", ""uniqueId"": ""debugX7KRTO:debug9QPIXV"", ""condition"": 0, ""counterbalance"": 0}"
debugX7KRTO:debug9QPIXV,58,1580494269834,"{""rt"": 3507.834999996703, ""stimulus"": ""<div style=\""font-size:40px;\"">B  C  B  B  B  A  C  B  C  B  B  C  B  A  B  C  B  A      </div>"", ""key_press"": 32, ""test_part"": ""test"", ""trial_type"": ""html-keyboard-response"", ""trial_index"": 58, ""time_elapsed"": 200810, ""internal_node_id"": ""0.0-2.0-0.28"", ""uniqueId"": ""debugX7KRTO:debug9QPIXV"", ""condition"": 0, ""counterbalance"": 0}"
debugX7KRTO:debug9QPIXV,59,1580494271741,"{""rt"": 1405.8400000212714, ""responses"": ""{\""Q0\"":2}"", ""question_order"": ""[0]"", ""test_part"": ""likert"", ""trial_type"": ""survey-likert"", ""trial_index"": 59, ""time_elapsed"": 202717, ""internal_node_id"": ""0.0-2.0-1.28"", ""uniqueId"": ""debugX7KRTO:debug9QPIXV"", ""condition"": 0, ""counterbalance"": 0}"
debugX7KRTO:debug9QPIXV,60,1580494273080,"{""rt"": 1333.184999995865, ""stimulus"": ""<div style=\""font-size:40px;\"">B  B  B  B  B  B  B  B  B  B  B  A  A  A  C  C  A  C      </div>"", ""key_press"": 32, ""test_part"": ""test"", ""trial_type"": ""html-keyboard-response"", ""trial_index"": 60, ""time_elapsed"": 204056, ""internal_node_id"": ""0.0-2.0-0.29"", ""uniqueId"": ""debugX7KRTO:debug9QPIXV"", ""condition"": 0, ""counterbalance"": 0}"
debugX7KRTO:debug9QPIXV,61,1580494275045,"{""rt"": 1462.9199999617413, ""responses"": ""{\""Q0\"":1}"", ""question_order"": ""[0]"", ""test_part"": ""likert"", ""trial_type"": ""survey-likert"", ""trial_index"": 61, ""time_elapsed"": 206021, ""internal_node_id"": ""0.0-2.0-1.29"", ""uniqueId"": ""debugX7KRTO:debug9QPIXV"", ""condition"": 0, ""counterbalance"": 0}"
debugX7KRTO:debug9QPIXV,62,1580494276039,"{""rt"": 987.9450000007637, ""stimulus"": ""<div style=\""font-size:40px;\"">C  B  B  C  B  B  C  B  A  B                              </div>"", ""key_press"": 32, ""test_part"": ""test"", ""trial_type"": ""html-keyboard-response"", ""trial_index"": 62, ""time_elapsed"": 207015, ""internal_node_id"": ""0.0-2.0-0.30"", ""uniqueId"": ""debugX7KRTO:debug9QPIXV"", ""condition"": 0, ""counterbalance"": 0}"
debugX7KRTO:debug9QPIXV,63,1580494278601,"{""rt"": 2060.2100000251085, ""responses"": ""{\""Q0\"":2}"", ""question_order"": ""[0]"", ""test_part"": ""likert"", ""trial_type"": ""survey-likert"", ""trial_index"": 63, ""time_elapsed"": 209577, ""internal_node_id"": ""0.0-2.0-1.30"", ""uniqueId"": ""debugX7KRTO:debug9QPIXV"", ""condition"": 0, ""counterbalance"": 0}"
debugX7KRTO:debug9QPIXV,64,1580494279340,"{""rt"": 734.2350000399165, ""stimulus"": ""<div style=\""font-size:40px;\"">A  A  A  A  A  A  A  A  A  A  A  A  A  A  A  A  A  A  A  A</div>"", ""key_press"": 32, ""test_part"": ""test"", ""trial_type"": ""html-keyboard-response"", ""trial_index"": 64, ""time_elapsed"": 210316, ""internal_node_id"": ""0.0-2.0-0.31"", ""uniqueId"": ""debugX7KRTO:debug9QPIXV"", ""condition"": 0, ""counterbalance"": 0}"
debugX7KRTO:debug9QPIXV,65,1580494280957,"{""rt"": 1114.8549999925308, ""responses"": ""{\""Q0\"":0}"", ""question_order"": ""[0]"", ""test_part"": ""likert"", ""trial_type"": ""survey-likert"", ""trial_index"": 65, ""time_elapsed"": 211933, ""internal_node_id"": ""0.0-2.0-1.31"", ""uniqueId"": ""debugX7KRTO:debug9QPIXV"", ""condition"": 0, ""counterbalance"": 0}"
debugX7KRTO:debug9QPIXV,66,1580494282114,"{""rt"": 1151.5350000117905, ""stimulus"": ""<div style=\""font-size:40px;\"">C  A  C  A  C  A  C  A  C  A  C  A  C  A  C  A            </div>"", ""key_press"": 32, ""test_part"": ""test"", ""trial_type"": ""html-keyboard-response"", ""trial_index"": 66, ""time_elapsed"": 213090, ""internal_node_id"": ""0.0-2.0-0.32"", ""uniqueId"": ""debugX7KRTO:debug9QPIXV"", ""condition"": 0, ""counterbalance"": 0}"
debugX7KRTO:debug9QPIXV,67,1580494284511,"{""rt"": 1895.574999973178, ""responses"": ""{\""Q0\"":4}"", ""question_order"": ""[0]"", ""test_part"": ""likert"", ""trial_type"": ""survey-likert"", ""trial_index"": 67, ""time_elapsed"": 215487, ""internal_node_id"": ""0.0-2.0-1.32"", ""uniqueId"": ""debugX7KRTO:debug9QPIXV"", ""condition"": 0, ""counterbalance"": 0}"
debugX7KRTO:debug9QPIXV,68,1580494285520,"{""rt"": 1003.324999997858, ""stimulus"": ""<div style=\""font-size:40px;\"">C  B  B  C  B  B  C  B                                    </div>"", ""key_press"": 32, ""test_part"": ""test"", ""trial_type"": ""html-keyboard-response"", ""trial_index"": 68, ""time_elapsed"": 216496, ""internal_node_id"": ""0.0-2.0-0.33"", ""uniqueId"": ""debugX7KRTO:debug9QPIXV"", ""condition"": 0, ""counterbalance"": 0}"
debugX7KRTO:debug9QPIXV,69,1580494288003,"{""rt"": 1979.204999981448, ""responses"": ""{\""Q0\"":5}"", ""question_order"": ""[0]"", ""test_part"": ""likert"", ""trial_type"": ""survey-likert"", ""trial_index"": 69, ""time_elapsed"": 218979, ""internal_node_id"": ""0.0-2.0-1.33"", ""uniqueId"": ""debugX7KRTO:debug9QPIXV"", ""condition"": 0, ""counterbalance"": 0}"
debugX7KRTO:debug9QPIXV,70,1580494290262,"{""rt"": 2253.694999963045, ""stimulus"": ""<div style=\""font-size:40px;\"">A  C  C  B  A  C  B  A  A  B  C  A  B  A  B  C            </div>"", ""key_press"": 32, ""test_part"": ""test"", ""trial_type"": ""html-keyboard-response"", ""trial_index"": 70, ""time_elapsed"": 221238, ""internal_node_id"": ""0.0-2.0-0.34"", ""uniqueId"": ""debugX7KRTO:debug9QPIXV"", ""condition"": 0, ""counterbalance"": 0}"
debugX7KRTO:debug9QPIXV,71,1580494292377,"{""rt"": 1611.4850000012666, ""responses"": ""{\""Q0\"":6}"", ""question_order"": ""[0]"", ""test_part"": ""likert"", ""trial_type"": ""survey-likert"", ""trial_index"": 71, ""time_elapsed"": 223353, ""internal_node_id"": ""0.0-2.0-1.34"", ""uniqueId"": ""debugX7KRTO:debug9QPIXV"", ""condition"": 0, ""counterbalance"": 0}"
debugX7KRTO:debug9QPIXV,72,1580494293649,"{""rt"": 1266.2750000017695, ""stimulus"": ""<div style=\""font-size:40px;\"">C  B  C  C  A  B  A  B  B  A  B  B  A  C                  </div>"", ""key_press"": 32, ""test_part"": ""test"", ""trial_type"": ""html-keyboard-response"", ""trial_index"": 72, ""time_elapsed"": 224625, ""internal_node_id"": ""0.0-2.0-0.35"", ""uniqueId"": ""debugX7KRTO:debug9QPIXV"", ""condition"": 0, ""counterbalance"": 0}"
debugX7KRTO:debug9QPIXV,73,1580494295947,"{""rt"": 1792.7650000201538, ""responses"": ""{\""Q0\"":6}"", ""question_order"": ""[0]"", ""test_part"": ""likert"", ""trial_type"": ""survey-likert"", ""trial_index"": 73, ""time_elapsed"": 226923, ""internal_node_id"": ""0.0-2.0-1.35"", ""uniqueId"": ""debugX7KRTO:debug9QPIXV"", ""condition"": 0, ""counterbalance"": 0}"
debugX7KRTO:debug9QPIXV,74,1580494298872,"{""rt"": 2919.7649999987334, ""stimulus"": ""<div style=\""font-size:40px;\"">C  A  C  B                                                </div>"", ""key_press"": 32, ""test_part"": ""test"", ""trial_type"": ""html-keyboard-response"", ""trial_index"": 74, ""time_elapsed"": 229848, ""internal_node_id"": ""0.0-2.0-0.36"", ""uniqueId"": ""debugX7KRTO:debug9QPIXV"", ""condition"": 0, ""counterbalance"": 0}"
debugX7KRTO:debug9QPIXV,75,1580494300999,"{""rt"": 1624.904999975115, ""responses"": ""{\""Q0\"":6}"", ""question_order"": ""[0]"", ""test_part"": ""likert"", ""trial_type"": ""survey-likert"", ""trial_index"": 75, ""time_elapsed"": 231975, ""internal_node_id"": ""0.0-2.0-1.36"", ""uniqueId"": ""debugX7KRTO:debug9QPIXV"", ""condition"": 0, ""counterbalance"": 0}"
debugX7KRTO:debug9QPIXV,76,1580494302150,"{""rt"": 1145.9349999786355, ""stimulus"": ""<div style=\""font-size:40px;\"">A  A  A  C  A  A                                          </div>"", ""key_press"": 32, ""test_part"": ""test"", ""trial_type"": ""html-keyboard-response"", ""trial_index"": 76, ""time_elapsed"": 233126, ""internal_node_id"": ""0.0-2.0-0.37"", ""uniqueId"": ""debugX7KRTO:debug9QPIXV"", ""condition"": 0, ""counterbalance"": 0}"
debugX7KRTO:debug9QPIXV,77,1580494304867,"{""rt"": 2210.770000005141, ""responses"": ""{\""Q0\"":5}"", ""question_order"": ""[0]"", ""test_part"": ""likert"", ""trial_type"": ""survey-likert"", ""trial_index"": 77, ""time_elapsed"": 235843, ""internal_node_id"": ""0.0-2.0-1.37"", ""uniqueId"": ""debugX7KRTO:debug9QPIXV"", ""condition"": 0, ""counterbalance"": 0}"
debugX7KRTO:debug9QPIXV,78,1580494305646,"{""rt"": 773.8050000043586, ""stimulus"": ""<div style=\""font-size:40px;\"">C  A  C  A  C  A  C  A  C  A  C  A  C  A                  </div>"", ""key_press"": 32, ""test_part"": ""test"", ""trial_type"": ""html-keyboard-response"", ""trial_index"": 78, ""time_elapsed"": 236622, ""internal_node_id"": ""0.0-2.0-0.38"", ""uniqueId"": ""debugX7KRTO:debug9QPIXV"", ""condition"": 0, ""counterbalance"": 0}"
debugX7KRTO:debug9QPIXV,79,1580494308863,"{""rt"": 2714.6599999978207, ""responses"": ""{\""Q0\"":2}"", ""question_order"": ""[0]"", ""test_part"": ""likert"", ""trial_type"": ""survey-likert"", ""trial_index"": 79, ""time_elapsed"": 239838, ""internal_node_id"": ""0.0-2.0-1.38"", ""uniqueId"": ""debugX7KRTO:debug9QPIXV"", ""condition"": 0, ""counterbalance"": 0}"
debugX7KRTO:debug9QPIXV,80,1580494311292,"{""rt"": 2424.8249999945983, ""stimulus"": ""<div style=\""font-size:40px;\"">A  A  C  C  C  C  C  A  B  C  C  A  B  B  A  B            </div>"", ""key_press"": 32, ""test_part"": ""test"", ""trial_type"": ""html-keyboard-response"", ""trial_index"": 80, ""time_elapsed"": 242268, ""internal_node_id"": ""0.0-2.0-0.39"", ""uniqueId"": ""debugX7KRTO:debug9QPIXV"", ""condition"": 0, ""counterbalance"": 0}"
debugX7KRTO:debug9QPIXV,81,1580494313864,"{""rt"": 2068.685000005644, ""responses"": ""{\""Q0\"":4}"", ""question_order"": ""[0]"", ""test_part"": ""likert"", ""trial_type"": ""survey-likert"", ""trial_index"": 81, ""time_elapsed"": 244840, ""internal_node_id"": ""0.0-2.0-1.39"", ""uniqueId"": ""debugX7KRTO:debug9QPIXV"", ""condition"": 0, ""counterbalance"": 0}"
debugX7KRTO:debug9QPIXV,82,1580494314578,"{""rt"": 708.1350000225939, ""stimulus"": ""<div style=\""font-size:40px;\"">B  B  B  A  A  A  C  B  B  C  B  B  C  A  A  B  C  A  B  B</div>"", ""key_press"": 32, ""test_part"": ""test"", ""trial_type"": ""html-keyboard-response"", ""trial_index"": 82, ""time_elapsed"": 245554, ""internal_node_id"": ""0.0-2.0-0.40"", ""uniqueId"": ""debugX7KRTO:debug9QPIXV"", ""condition"": 0, ""counterbalance"": 0}"
debugX7KRTO:debug9QPIXV,83,1580494317453,"{""rt"": 2372.894999978598, ""responses"": ""{\""Q0\"":5}"", ""question_order"": ""[0]"", ""test_part"": ""likert"", ""trial_type"": ""survey-likert"", ""trial_index"": 83, ""time_elapsed"": 248429, ""internal_node_id"": ""0.0-2.0-1.40"", ""uniqueId"": ""debugX7KRTO:debug9QPIXV"", ""condition"": 0, ""counterbalance"": 0}"
debugX7KRTO:debug9QPIXV,84,1580494320229,"{""rt"": 2771.7150000389665, ""stimulus"": ""<div style=\""font-size:40px;\""></div>"", ""key_press"": 32, ""test_part"": ""test"", ""trial_type"": ""html-keyboard-response"", ""trial_index"": 84, ""time_elapsed"": 251205, ""internal_node_id"": ""0.0-2.0-0.41"", ""uniqueId"": ""debugX7KRTO:debug9QPIXV"", ""condition"": 0, ""counterbalance"": 0}"
debugX7KRTO:debug9QPIXV,85,1580494323346,"{""rt"": 2615.315000002738, ""responses"": ""{\""Q0\"":5}"", ""question_order"": ""[0]"", ""test_part"": ""likert"", ""trial_type"": ""survey-likert"", ""trial_index"": 85, ""time_elapsed"": 254322, ""internal_node_id"": ""0.0-2.0-1.41"", ""uniqueId"": ""debugX7KRTO:debug9QPIXV"", ""condition"": 0, ""counterbalance"": 0}"
debugX7KRTO:debug9QPIXV,86,1580494325441,"{""rt"": 2089.345000043977, ""stimulus"": ""<div style=\""font-size:40px;\"">C  C  C  B  C  A  B  C  A  B                              </div>"", ""key_press"": 32, ""test_part"": ""test"", ""trial_type"": ""html-keyboard-response"", ""trial_index"": 86, ""time_elapsed"": 256417, ""internal_node_id"": ""0.0-2.0-0.42"", ""uniqueId"": ""debugX7KRTO:debug9QPIXV"", ""condition"": 0, ""counterbalance"": 0}"
debugX7KRTO:debug9QPIXV,87,1580494327584,"{""rt"": 1641.5150000248104, ""responses"": ""{\""Q0\"":6}"", ""question_order"": ""[0]"", ""test_part"": ""likert"", ""trial_type"": ""survey-likert"", ""trial_index"": 87, ""time_elapsed"": 258560, ""internal_node_id"": ""0.0-2.0-1.42"", ""uniqueId"": ""debugX7KRTO:debug9QPIXV"", ""condition"": 0, ""counterbalance"": 0}"
debugX7KRTO:debug9QPIXV,88,1580494329779,"{""rt"": 2189.4200000097044, ""stimulus"": ""<div style=\""font-size:40px;\"">C  C  C  C  B  C  B  C                                    </div>"", ""key_press"": 32, ""test_part"": ""test"", ""trial_type"": ""html-keyboard-response"", ""trial_index"": 88, ""time_elapsed"": 260755, ""internal_node_id"": ""0.0-2.0-0.43"", ""uniqueId"": ""debugX7KRTO:debug9QPIXV"", ""condition"": 0, ""counterbalance"": 0}"
debugX7KRTO:debug9QPIXV,89,1580494331879,"{""rt"": 1596.064999990631, ""responses"": ""{\""Q0\"":5}"", ""question_order"": ""[0]"", ""test_part"": ""likert"", ""trial_type"": ""survey-likert"", ""trial_index"": 89, ""time_elapsed"": 262854, ""internal_node_id"": ""0.0-2.0-1.43"", ""uniqueId"": ""debugX7KRTO:debug9QPIXV"", ""condition"": 0, ""counterbalance"": 0}"
debugX7KRTO:debug9QPIXV,90,1580494333943,"{""rt"": 2059.2199999955483, ""stimulus"": ""<div style=\""font-size:40px;\"">A  A  A  A                                                </div>"", ""key_press"": 32, ""test_part"": ""test"", ""trial_type"": ""html-keyboard-response"", ""trial_index"": 90, ""time_elapsed"": 264919, ""internal_node_id"": ""0.0-2.0-0.44"", ""uniqueId"": ""debugX7KRTO:debug9QPIXV"", ""condition"": 0, ""counterbalance"": 0}"
debugX7KRTO:debug9QPIXV,91,1580494335578,"{""rt"": 1132.8850000281818, ""responses"": ""{\""Q0\"":5}"", ""question_order"": ""[0]"", ""test_part"": ""likert"", ""trial_type"": ""survey-likert"", ""trial_index"": 91, ""time_elapsed"": 266554, ""internal_node_id"": ""0.0-2.0-1.44"", ""uniqueId"": ""debugX7KRTO:debug9QPIXV"", ""condition"": 0, ""counterbalance"": 0}"
debugX7KRTO:debug9QPIXV,92,1580494337551,"{""rt"": 1966.710000007879, ""stimulus"": ""<div style=\""font-size:40px;\"">A  B  B  A  B  B  A  B  C  A  A  C  C  A  C  B            </div>"", ""key_press"": 32, ""test_part"": ""test"", ""trial_type"": ""html-keyboard-response"", ""trial_index"": 92, ""time_elapsed"": 268527, ""internal_node_id"": ""0.0-2.0-0.45"", ""uniqueId"": ""debugX7KRTO:debug9QPIXV"", ""condition"": 0, ""counterbalance"": 0}"
debugX7KRTO:debug9QPIXV,93,1580494340043,"{""rt"": 1989.5950000500306, ""responses"": ""{\""Q0\"":6}"", ""question_order"": ""[0]"", ""test_part"": ""likert"", ""trial_type"": ""survey-likert"", ""trial_index"": 93, ""time_elapsed"": 271018, ""internal_node_id"": ""0.0-2.0-1.45"", ""uniqueId"": ""debugX7KRTO:debug9QPIXV"", ""condition"": 0, ""counterbalance"": 0}"
debugX7KRTO:debug9QPIXV,94,1580494340928,"{""rt"": 879.480000003241, ""stimulus"": ""<div style=\""font-size:40px;\"">C  A  C  C  B  A  C  C  C  C  A  B  A  C                  </div>"", ""key_press"": 32, ""test_part"": ""test"", ""trial_type"": ""html-keyboard-response"", ""trial_index"": 94, ""time_elapsed"": 271904, ""internal_node_id"": ""0.0-2.0-0.46"", ""uniqueId"": ""debugX7KRTO:debug9QPIXV"", ""condition"": 0, ""counterbalance"": 0}"
debugX7KRTO:debug9QPIXV,95,1580494342840,"{""rt"": 1406.009999976959, ""responses"": ""{\""Q0\"":4}"", ""question_order"": ""[0]"", ""test_part"": ""likert"", ""trial_type"": ""survey-likert"", ""trial_index"": 95, ""time_elapsed"": 273816, ""internal_node_id"": ""0.0-2.0-1.46"", ""uniqueId"": ""debugX7KRTO:debug9QPIXV"", ""condition"": 0, ""counterbalance"": 0}"
debugX7KRTO:debug9QPIXV,96,1580494343826,"{""rt"": 976.8800000310875, ""stimulus"": ""<div style=\""font-size:40px;\"">C  A  C  A  B  B  C  A  C  C  C  B  C  B                  </div>"", ""key_press"": 32, ""test_part"": ""test"", ""trial_type"": ""html-keyboard-response"", ""trial_index"": 96, ""time_elapsed"": 274798, ""internal_node_id"": ""0.0-2.0-0.47"", ""uniqueId"": ""debugX7KRTO:debug9QPIXV"", ""condition"": 0, ""counterbalance"": 0}"
debugX7KRTO:debug9QPIXV,97,1580494345680,"{""rt"": 1351.444999978412, ""responses"": ""{\""Q0\"":6}"", ""question_order"": ""[0]"", ""test_part"": ""likert"", ""trial_type"": ""survey-likert"", ""trial_index"": 97, ""time_elapsed"": 276656, ""internal_node_id"": ""0.0-2.0-1.47"", ""uniqueId"": ""debugX7KRTO:debug9QPIXV"", ""condition"": 0, ""counterbalance"": 0}"
debugX7KRTO:debug9QPIXV,98,1580494346793,"{""rt"": 1107.804999977816, ""stimulus"": ""<div style=\""font-size:40px;\"">B  A  B  B  C  A  B  B  C  C  B  C  C  B  C  C  B  C  C  B</div>"", ""key_press"": 32, ""test_part"": ""test"", ""trial_type"": ""html-keyboard-response"", ""trial_index"": 98, ""time_elapsed"": 277769, ""internal_node_id"": ""0.0-2.0-0.48"", ""uniqueId"": ""debugX7KRTO:debug9QPIXV"", ""condition"": 0, ""counterbalance"": 0}"
debugX7KRTO:debug9QPIXV,99,1580494350198,"{""rt"": 2902.5150000234134, ""responses"": ""{\""Q0\"":6}"", ""question_order"": ""[0]"", ""test_part"": ""likert"", ""trial_type"": ""survey-likert"", ""trial_index"": 99, ""time_elapsed"": 281174, ""internal_node_id"": ""0.0-2.0-1.48"", ""uniqueId"": ""debugX7KRTO:debug9QPIXV"", ""condition"": 0, ""counterbalance"": 0}"
debugX7KRTO:debug9QPIXV,100,1580494350834,"{""rt"": 631.1500000301749, ""stimulus"": ""<div style=\""font-size:40px;\"">A  A  C  A                                                </div>"", ""key_press"": 32, ""test_part"": ""test"", ""trial_type"": ""html-keyboard-response"", ""trial_index"": 100, ""time_elapsed"": 281810, ""internal_node_id"": ""0.0-2.0-0.49"", ""uniqueId"": ""debugX7KRTO:debug9QPIXV"", ""condition"": 0, ""counterbalance"": 0}"
debugX7KRTO:debug9QPIXV,101,1580494353030,"{""rt"": 1693.8199999858625, ""responses"": ""{\""Q0\"":5}"", ""question_order"": ""[0]"", ""test_part"": ""likert"", ""trial_type"": ""survey-likert"", ""trial_index"": 101, ""time_elapsed"": 284006, ""internal_node_id"": ""0.0-2.0-1.49"", ""uniqueId"": ""debugX7KRTO:debug9QPIXV"", ""condition"": 0, ""counterbalance"": 0}"
debugX7KRTO:debug9QPIXV,102,1580494356694,"{""rt"": 3658.434999990277, ""stimulus"": ""<div style=\""font-size:40px;\"">B  C  B  B  C  B  B  C  B  B                              </div>"", ""key_press"": 32, ""test_part"": ""test"", ""trial_type"": ""html-keyboard-response"", ""trial_index"": 102, ""time_elapsed"": 287670, ""internal_node_id"": ""0.0-2.0-0.50"", ""uniqueId"": ""debugX7KRTO:debug9QPIXV"", ""condition"": 0, ""counterbalance"": 0}"
debugX7KRTO:debug9QPIXV,103,1580494359052,"{""rt"": 1855.0349999568425, ""responses"": ""{\""Q0\"":1}"", ""question_order"": ""[0]"", ""test_part"": ""likert"", ""trial_type"": ""survey-likert"", ""trial_index"": 103, ""time_elapsed"": 290028, ""internal_node_id"": ""0.0-2.0-1.50"", ""uniqueId"": ""debugX7KRTO:debug9QPIXV"", ""condition"": 0, ""counterbalance"": 0}"
debugX7KRTO:debug9QPIXV,104,1580494362506,"{""rt"": 3449.1050000069663, ""stimulus"": ""<div style=\""font-size:40px;\"">C  C  C  C  C  C  A  A  A  C  A  A                        </div>"", ""key_press"": 32, ""test_part"": ""test"", ""trial_type"": ""html-keyboard-response"", ""trial_index"": 104, ""time_elapsed"": 293482, ""internal_node_id"": ""0.0-2.0-0.51"", ""uniqueId"": ""debugX7KRTO:debug9QPIXV"", ""condition"": 0, ""counterbalance"": 0}"
debugX7KRTO:debug9QPIXV,105,1580494363966,"{""rt"": 957.6200000010431, ""responses"": ""{\""Q0\"":2}"", ""question_order"": ""[0]"", ""test_part"": ""likert"", ""trial_type"": ""survey-likert"", ""trial_index"": 105, ""time_elapsed"": 294942, ""internal_node_id"": ""0.0-2.0-1.51"", ""uniqueId"": ""debugX7KRTO:debug9QPIXV"", ""condition"": 0, ""counterbalance"": 0}"
debugX7KRTO:debug9QPIXV,106,1580494364774,"{""rt"": 803.2649999950081, ""stimulus"": ""<div style=\""font-size:40px;\"">A  C  A  C  A  C                                          </div>"", ""key_press"": 32, ""test_part"": ""test"", ""trial_type"": ""html-keyboard-response"", ""trial_index"": 106, ""time_elapsed"": 295750, ""internal_node_id"": ""0.0-2.0-0.52"", ""uniqueId"": ""debugX7KRTO:debug9QPIXV"", ""condition"": 0, ""counterbalance"": 0}"
debugX7KRTO:debug9QPIXV,107,1580494366965,"{""rt"": 1688.945000001695, ""responses"": ""{\""Q0\"":2}"", ""question_order"": ""[0]"", ""test_part"": ""likert"", ""trial_type"": ""survey-likert"", ""trial_index"": 107, ""time_elapsed"": 297941, ""internal_node_id"": ""0.0-2.0-1.52"", ""uniqueId"": ""debugX7KRTO:debug9QPIXV"", ""condition"": 0, ""counterbalance"": 0}"
debugX7KRTO:debug9QPIXV,108,1580494368085,"{""rt"": 1115.1149999932386, ""stimulus"": ""<div style=\""font-size:40px;\"">B  A  B  A  C  B  B  C                                    </div>"", ""key_press"": 32, ""test_part"": ""test"", ""trial_type"": ""html-keyboard-response"", ""trial_index"": 108, ""time_elapsed"": 299061, ""internal_node_id"": ""0.0-2.0-0.53"", ""uniqueId"": ""debugX7KRTO:debug9QPIXV"", ""condition"": 0, ""counterbalance"": 0}"
debugX7KRTO:debug9QPIXV,109,1580494369726,"{""rt"": 1139.1249999869615, ""responses"": ""{\""Q0\"":3}"", ""question_order"": ""[0]"", ""test_part"": ""likert"", ""trial_type"": ""survey-likert"", ""trial_index"": 109, ""time_elapsed"": 300702, ""internal_node_id"": ""0.0-2.0-1.53"", ""uniqueId"": ""debugX7KRTO:debug9QPIXV"", ""condition"": 0, ""counterbalance"": 0}"
debugX7KRTO:debug9QPIXV,110,1580494370437,"{""rt"": 705.4850000422448, ""stimulus"": ""<div style=\""font-size:40px;\"">B  B  B  B  B  B  B  B  B  B  B  B  B  B  B  B  B  B      </div>"", ""key_press"": 32, ""test_part"": ""test"", ""trial_type"": ""html-keyboard-response"", ""trial_index"": 110, ""time_elapsed"": 301413, ""internal_node_id"": ""0.0-2.0-0.54"", ""uniqueId"": ""debugX7KRTO:debug9QPIXV"", ""condition"": 0, ""counterbalance"": 0}"
debugX7KRTO:debug9QPIXV,111,1580494372877,"{""rt"": 1939.139999973122, ""responses"": ""{\""Q0\"":0}"", ""question_order"": ""[0]"", ""test_part"": ""likert"", ""trial_type"": ""survey-likert"", ""trial_index"": 111, ""time_elapsed"": 303853, ""internal_node_id"": ""0.0-2.0-1.54"", ""uniqueId"": ""debugX7KRTO:debug9QPIXV"", ""condition"": 0, ""counterbalance"": 0}"
debugX7KRTO:debug9QPIXV,112,1580494373985,"{""rt"": 1102.6050000218675, ""stimulus"": ""<div style=\""font-size:40px;\"">B  C  C  C  C  C  A  C  C  C  C  C  B  B  C  C  B  B      </div>"", ""key_press"": 32, ""test_part"": ""test"", ""trial_type"": ""html-keyboard-response"", ""trial_index"": 112, ""time_elapsed"": 304961, ""internal_node_id"": ""0.0-2.0-0.55"", ""uniqueId"": ""debugX7KRTO:debug9QPIXV"", ""condition"": 0, ""counterbalance"": 0}"
debugX7KRTO:debug9QPIXV,113,1580494376063,"{""rt"": 1576.6350000048988, ""responses"": ""{\""Q0\"":3}"", ""question_order"": ""[0]"", ""test_part"": ""likert"", ""trial_type"": ""survey-likert"", ""trial_index"": 113, ""time_elapsed"": 307039, ""internal_node_id"": ""0.0-2.0-1.55"", ""uniqueId"": ""debugX7KRTO:debug9QPIXV"", ""condition"": 0, ""counterbalance"": 0}"
debugX7KRTO:debug9QPIXV,114,1580494377703,"{""rt"": 1634.9450000561774, ""stimulus"": ""<div style=\""font-size:40px;\"">C  C  B  A  A  C  B  B  C  A  C  A  B  A                  </div>"", ""key_press"": 32, ""test_part"": ""test"", ""trial_type"": ""html-keyboard-response"", ""trial_index"": 114, ""time_elapsed"": 308679, ""internal_node_id"": ""0.0-2.0-0.56"", ""uniqueId"": ""debugX7KRTO:debug9QPIXV"", ""condition"": 0, ""counterbalance"": 0}"
debugX7KRTO:debug9QPIXV,115,1580494379728,"{""rt"": 1522.6200000033714, ""responses"": ""{\""Q0\"":4}"", ""question_order"": ""[0]"", ""test_part"": ""likert"", ""trial_type"": ""survey-likert"", ""trial_index"": 115, ""time_elapsed"": 310704, ""internal_node_id"": ""0.0-2.0-1.56"", ""uniqueId"": ""debugX7KRTO:debug9QPIXV"", ""condition"": 0, ""counterbalance"": 0}"
debugX7KRTO:debug9QPIXV,116,1580494381335,"{""rt"": 1603.1550000188872, ""stimulus"": ""<div style=\""font-size:40px;\"">C  C  C  C  A  C  B  C  B  C  B  C  B  C  B  C  B  C  B  C</div>"", ""key_press"": 32, ""test_part"": ""test"", ""trial_type"": ""html-keyboard-response"", ""trial_index"": 116, ""time_elapsed"": 312311, ""internal_node_id"": ""0.0-2.0-0.57"", ""uniqueId"": ""debugX7KRTO:debug9QPIXV"", ""condition"": 0, ""counterbalance"": 0}"
debugX7KRTO:debug9QPIXV,117,1580494383605,"{""rt"": 1769.094999996014, ""responses"": ""{\""Q0\"":4}"", ""question_order"": ""[0]"", ""test_part"": ""likert"", ""trial_type"": ""survey-likert"", ""trial_index"": 117, ""time_elapsed"": 314581, ""internal_node_id"": ""0.0-2.0-1.57"", ""uniqueId"": ""debugX7KRTO:debug9QPIXV"", ""condition"": 0, ""counterbalance"": 0}"
debugX7KRTO:debug9QPIXV,118,1580494384284,"{""rt"": 672.809999960009, ""stimulus"": ""<div style=\""font-size:40px;\"">C  B  A  A  B  C  A  C  B  A  B  A  B  B  A  B  B  A      </div>"", ""key_press"": 32, ""test_part"": ""test"", ""trial_type"": ""html-keyboard-response"", ""trial_index"": 118, ""time_elapsed"": 315259, ""internal_node_id"": ""0.0-2.0-0.58"", ""uniqueId"": ""debugX7KRTO:debug9QPIXV"", ""condition"": 0, ""counterbalance"": 0}"
debugX7KRTO:debug9QPIXV,119,1580494386027,"{""rt"": 1240.8350000041537, ""responses"": ""{\""Q0\"":3}"", ""question_order"": ""[0]"", ""test_part"": ""likert"", ""trial_type"": ""survey-likert"", ""trial_index"": 119, ""time_elapsed"": 317003, ""internal_node_id"": ""0.0-2.0-1.58"", ""uniqueId"": ""debugX7KRTO:debug9QPIXV"", ""condition"": 0, ""counterbalance"": 0}"
debugX7KRTO:debug9QPIXV,120,1580494388031,"{""rt"": 2000.0449999934062, ""stimulus"": ""<div style=\""font-size:40px;\"">A  B  B  A  A  A  A  A  A  A                              </div>"", ""key_press"": 32, ""test_part"": ""test"", ""trial_type"": ""html-keyboard-response"", ""trial_index"": 120, ""time_elapsed"": 319007, ""internal_node_id"": ""0.0-2.0-0.59"", ""uniqueId"": ""debugX7KRTO:debug9QPIXV"", ""condition"": 0, ""counterbalance"": 0}"
debugX7KRTO:debug9QPIXV,121,1580494389959,"{""rt"": 1426.0549999889918, ""responses"": ""{\""Q0\"":2}"", ""question_order"": ""[0]"", ""test_part"": ""likert"", ""trial_type"": ""survey-likert"", ""trial_index"": 121, ""time_elapsed"": 320935, ""internal_node_id"": ""0.0-2.0-1.59"", ""uniqueId"": ""debugX7KRTO:debug9QPIXV"", ""condition"": 0, ""counterbalance"": 0}"
debugX7KRTO:debug9QPIXV,122,1580494392462,"{""rt"": 2497.139999992214, ""stimulus"": ""<div style=\""font-size:40px;\"">B  C  B  C  B  C  B  C  B  C  B  C  B  C  A  B  A  A  B  A</div>"", ""key_press"": 32, ""test_part"": ""test"", ""trial_type"": ""html-keyboard-response"", ""trial_index"": 122, ""time_elapsed"": 323438, ""internal_node_id"": ""0.0-2.0-0.60"", ""uniqueId"": ""debugX7KRTO:debug9QPIXV"", ""condition"": 0, ""counterbalance"": 0}"
debugX7KRTO:debug9QPIXV,123,1580494394423,"{""rt"": 1458.7950000423007, ""responses"": ""{\""Q0\"":1}"", ""question_order"": ""[0]"", ""test_part"": ""likert"", ""trial_type"": ""survey-likert"", ""trial_index"": 123, ""time_elapsed"": 325399, ""internal_node_id"": ""0.0-2.0-1.60"", ""uniqueId"": ""debugX7KRTO:debug9QPIXV"", ""condition"": 0, ""counterbalance"": 0}"
debugX7KRTO:debug9QPIXV,124,1580494395173,"{""rt"": 743.9400000148453, ""stimulus"": ""<div style=\""font-size:40px;\"">A  B  A  B                                                </div>"", ""key_press"": 32, ""test_part"": ""test"", ""trial_type"": ""html-keyboard-response"", ""trial_index"": 124, ""time_elapsed"": 326148, ""internal_node_id"": ""0.0-2.0-0.61"", ""uniqueId"": ""debugX7KRTO:debug9QPIXV"", ""condition"": 0, ""counterbalance"": 0}"
debugX7KRTO:debug9QPIXV,125,1580494397086,"{""rt"": 1407.2349999914877, ""responses"": ""{\""Q0\"":2}"", ""question_order"": ""[0]"", ""test_part"": ""likert"", ""trial_type"": ""survey-likert"", ""trial_index"": 125, ""time_elapsed"": 328062, ""internal_node_id"": ""0.0-2.0-1.61"", ""uniqueId"": ""debugX7KRTO:debug9QPIXV"", ""condition"": 0, ""counterbalance"": 0}"
debugX7KRTO:debug9QPIXV,126,1580494398207,"{""rt"": 1115.9200000111014, ""stimulus"": ""<div style=\""font-size:40px;\"">B  C  B  C  B  C  B  C  B  C  B  C  B  C                  </div>"", ""key_press"": 32, ""test_part"": ""test"", ""trial_type"": ""html-keyboard-response"", ""trial_index"": 126, ""time_elapsed"": 329183, ""internal_node_id"": ""0.0-2.0-0.62"", ""uniqueId"": ""debugX7KRTO:debug9QPIXV"", ""condition"": 0, ""counterbalance"": 0}"
debugX7KRTO:debug9QPIXV,127,1580494400583,"{""rt"": 1874.6350000146776, ""responses"": ""{\""Q0\"":1}"", ""question_order"": ""[0]"", ""test_part"": ""likert"", ""trial_type"": ""survey-likert"", ""trial_index"": 127, ""time_elapsed"": 331559, ""internal_node_id"": ""0.0-2.0-1.62"", ""uniqueId"": ""debugX7KRTO:debug9QPIXV"", ""condition"": 0, ""counterbalance"": 0}"
debugX7KRTO:debug9QPIXV,128,1580494401298,"{""rt"": 709.5850000041537, ""stimulus"": ""<div style=\""font-size:40px;\"">A  C  A  C                                                </div>"", ""key_press"": 32, ""test_part"": ""test"", ""trial_type"": ""html-keyboard-response"", ""trial_index"": 128, ""time_elapsed"": 332274, ""internal_node_id"": ""0.0-2.0-0.63"", ""uniqueId"": ""debugX7KRTO:debug9QPIXV"", ""condition"": 0, ""counterbalance"": 0}"
debugX7KRTO:debug9QPIXV,129,1580494403284,"{""rt"": 1483.6599999689497, ""responses"": ""{\""Q0\"":1}"", ""question_order"": ""[0]"", ""test_part"": ""likert"", ""trial_type"": ""survey-likert"", ""trial_index"": 129, ""time_elapsed"": 334260, ""internal_node_id"": ""0.0-2.0-1.63"", ""uniqueId"": ""debugX7KRTO:debug9QPIXV"", ""condition"": 0, ""counterbalance"": 0}"
debugX7KRTO:debug9QPIXV,130,1580494406056,"{""rt"": 2768.1699999957345, ""stimulus"": ""<p>Thanks for participating! Press \""q\"" to finish the experiment.</p>"", ""key_press"": 81, ""test_part"": ""instructions"", ""trial_type"": ""html-keyboard-response"", ""trial_index"": 130, ""time_elapsed"": 337032, ""internal_node_id"": ""0.0-3.0"", ""uniqueId"": ""debugX7KRTO:debug9QPIXV"", ""condition"": 0, ""counterbalance"": 0}"
A2APG8MSLJ6G2K:3M81GAB8A4GULPTTDQNRFKSSWUXQBA,0,1580496169346,"{""rt"": 11556.48500006646, ""responses"": ""{\""Q0\"":\""circle green\""}"", ""test_part"": ""botcheck"", ""trial_type"": ""survey-text"", ""trial_index"": 0, ""time_elapsed"": 11570, ""internal_node_id"": ""0.0-0.0"", ""uniqueId"": ""A2APG8MSLJ6G2K:3M81GAB8A4GULPTTDQNRFKSSWUXQBA"", ""condition"": 0, ""counterbalance"": 0}"
A2APG8MSLJ6G2K:3M81GAB8A4GULPTTDQNRFKSSWUXQBA,1,1580496180660,"{""rt"": 11311.459999997169, ""stimulus"": ""<p>This session will last for 10min. </p><p> In each trial, you will see a sequence consisting of A's, B's and/or C's. </p> <p> After seeing the sequence, press any key, and you will be asked </p><p> to judge how likely it is that the sequence came from a random process. </p><p> You don't need to calculate anything, we simply ask for your intuitive judgments. </p><p> Sequences are generated independently from each other. </p>"", ""button_pressed"": ""0"", ""test_part"": ""instructions"", ""trial_type"": ""html-button-response"", ""trial_index"": 1, ""time_elapsed"": 22885, ""internal_node_id"": ""0.0-1.0"", ""uniqueId"": ""A2APG8MSLJ6G2K:3M81GAB8A4GULPTTDQNRFKSSWUXQBA"", ""condition"": 0, ""counterbalance"": 0}"
A2APG8MSLJ6G2K:3M81GAB8A4GULPTTDQNRFKSSWUXQBA,2,1580496183106,"{""rt"": 1442.5199998077005, ""stimulus"": ""<div style=\""font-size:40px;\"">B  C  A  A  A  A  B  A  A  A  B  B</div>"", ""key_press"": 32, ""test_part"": ""test"", ""trial_type"": ""html-keyboard-response"", ""trial_index"": 2, ""time_elapsed"": 25331, ""internal_node_id"": ""0.0-2.0-0.0"", ""uniqueId"": ""A2APG8MSLJ6G2K:3M81GAB8A4GULPTTDQNRFKSSWUXQBA"", ""condition"": 0, ""counterbalance"": 0}"
A2APG8MSLJ6G2K:3M81GAB8A4GULPTTDQNRFKSSWUXQBA,3,1580496190800,"{""rt"": 7191.359999822453, ""responses"": ""{\""Q0\"":8}"", ""question_order"": ""[0]"", ""test_part"": ""likert"", ""trial_type"": ""survey-likert"", ""trial_index"": 3, ""time_elapsed"": 33024, ""internal_node_id"": ""0.0-2.0-1.0"", ""uniqueId"": ""A2APG8MSLJ6G2K:3M81GAB8A4GULPTTDQNRFKSSWUXQBA"", ""condition"": 0, ""counterbalance"": 0}"
A2APG8MSLJ6G2K:3M81GAB8A4GULPTTDQNRFKSSWUXQBA,4,1580496193170,"{""rt"": 2359.0200000908226, ""stimulus"": ""<div style=\""font-size:40px;\"">C  B  C  C  B  C  C  A  B  A      </div>"", ""key_press"": 32, ""test_part"": ""test"", ""trial_type"": ""html-keyboard-response"", ""trial_index"": 4, ""time_elapsed"": 35395, ""internal_node_id"": ""0.0-2.0-0.1"", ""uniqueId"": ""A2APG8MSLJ6G2K:3M81GAB8A4GULPTTDQNRFKSSWUXQBA"", ""condition"": 0, ""counterbalance"": 0}"
A2APG8MSLJ6G2K:3M81GAB8A4GULPTTDQNRFKSSWUXQBA,5,1580496195999,"{""rt"": 2327.3849999532104, ""responses"": ""{\""Q0\"":7}"", ""question_order"": ""[0]"", ""test_part"": ""likert"", ""trial_type"": ""survey-likert"", ""trial_index"": 5, ""time_elapsed"": 38224, ""internal_node_id"": ""0.0-2.0-1.1"", ""uniqueId"": ""A2APG8MSLJ6G2K:3M81GAB8A4GULPTTDQNRFKSSWUXQBA"", ""condition"": 0, ""counterbalance"": 0}"
A2APG8MSLJ6G2K:3M81GAB8A4GULPTTDQNRFKSSWUXQBA,6,1580496197890,"{""rt"": 1879.8000002279878, ""stimulus"": ""<div style=\""font-size:40px;\"">C  B  B  A                        </div>"", ""key_press"": 32, ""test_part"": ""test"", ""trial_type"": ""html-keyboard-response"", ""trial_index"": 6, ""time_elapsed"": 40115, ""internal_node_id"": ""0.0-2.0-0.2"", ""uniqueId"": ""A2APG8MSLJ6G2K:3M81GAB8A4GULPTTDQNRFKSSWUXQBA"", ""condition"": 0, ""counterbalance"": 0}"
A2APG8MSLJ6G2K:3M81GAB8A4GULPTTDQNRFKSSWUXQBA,7,1580496201754,"{""rt"": 3363.2249999791384, ""responses"": ""{\""Q0\"":7}"", ""question_order"": ""[0]"", ""test_part"": ""likert"", ""trial_type"": ""survey-likert"", ""trial_index"": 7, ""time_elapsed"": 43979, ""internal_node_id"": ""0.0-2.0-1.2"", ""uniqueId"": ""A2APG8MSLJ6G2K:3M81GAB8A4GULPTTDQNRFKSSWUXQBA"", ""condition"": 0, ""counterbalance"": 0}"
A2APG8MSLJ6G2K:3M81GAB8A4GULPTTDQNRFKSSWUXQBA,8,1580496204082,"{""rt"": 2315.9099998883903, ""stimulus"": ""<p>Thanks for participating! Press \""q\"" to finish the experiment.</p>"", ""key_press"": 81, ""test_part"": ""instructions"", ""trial_type"": ""html-keyboard-response"", ""trial_index"": 8, ""time_elapsed"": 46307, ""internal_node_id"": ""0.0-3.0"", ""uniqueId"": ""A2APG8MSLJ6G2K:3M81GAB8A4GULPTTDQNRFKSSWUXQBA"", ""condition"": 0, ""counterbalance"": 0}"
A2ZDEERVRN5AMC:39LOEL67OW2JCQPKC3RLBA9GEW083S,0,1580496550425,"{""condition"": 0, ""counterbalance"": 0, ""internal_node_id"": ""0.0-0.0"", ""responses"": ""{\""Q0\"":\""circle, green\""}"", ""rt"": 22254.495000001043, ""test_part"": ""botcheck"", ""time_elapsed"": 22310, ""trial_index"": 0, ""trial_type"": ""survey-text"", ""uniqueId"": ""A2ZDEERVRN5AMC:39LOEL67OW2JCQPKC3RLBA9GEW083S""}"
A2ZDEERVRN5AMC:39LOEL67OW2JCQPKC3RLBA9GEW083S,1,1580496586064,"{""button_pressed"": ""0"", ""condition"": 0, ""counterbalance"": 0, ""internal_node_id"": ""0.0-1.0"", ""rt"": 35636.049999971874, ""stimulus"": ""<p>This session will last for 10min. </p><p> In each trial, you will see a sequence consisting of A's, B's and/or C's. </p> <p> After seeing the sequence, press any key, and you will be asked </p><p> to judge how likely it is that the sequence came from a random process. </p><p> You don't need to calculate anything, we simply ask for your intuitive judgments. </p><p> Sequences are generated independently from each other. </p>"", ""test_part"": ""instructions"", ""time_elapsed"": 57950, ""trial_index"": 1, ""trial_type"": ""html-button-response"", ""uniqueId"": ""A2ZDEERVRN5AMC:39LOEL67OW2JCQPKC3RLBA9GEW083S""}"
A2ZDEERVRN5AMC:39LOEL67OW2JCQPKC3RLBA9GEW083S,2,1580496595400,"{""condition"": 0, ""counterbalance"": 0, ""internal_node_id"": ""0.0-2.0-0.0"", ""key_press"": 32, ""rt"": 8333.689999999478, ""stimulus"": ""<div style=\""font-size:40px;\"">A  B  C  B                                                </div>"", ""test_part"": ""test"", ""time_elapsed"": 67286, ""trial_index"": 2, ""trial_type"": ""html-keyboard-response"", ""uniqueId"": ""A2ZDEERVRN5AMC:39LOEL67OW2JCQPKC3RLBA9GEW083S""}"
A2ZDEERVRN5AMC:39LOEL67OW2JCQPKC3RLBA9GEW083S,3,1580496603776,"{""condition"": 0, ""counterbalance"": 0, ""internal_node_id"": ""0.0-2.0-1.0"", ""question_order"": ""[0]"", ""responses"": ""{\""Q0\"":6}"", ""rt"": 7870.7699999795295, ""test_part"": ""likert"", ""time_elapsed"": 75661, ""trial_index"": 3, ""trial_type"": ""survey-likert"", ""uniqueId"": ""A2ZDEERVRN5AMC:39LOEL67OW2JCQPKC3RLBA9GEW083S""}"
A2ZDEERVRN5AMC:39LOEL67OW2JCQPKC3RLBA9GEW083S,4,1580496605512,"{""condition"": 0, ""counterbalance"": 0, ""internal_node_id"": ""0.0-2.0-0.1"", ""key_press"": 32, ""rt"": 1728.8749999715947, ""stimulus"": ""<div style=\""font-size:40px;\"">A  A  B  C  C  A                                          </div>"", ""test_part"": ""test"", ""time_elapsed"": 77398, ""trial_index"": 4, ""trial_type"": ""html-keyboard-response"", ""uniqueId"": ""A2ZDEERVRN5AMC:39LOEL67OW2JCQPKC3RLBA9GEW083S""}"
A2ZDEERVRN5AMC:39LOEL67OW2JCQPKC3RLBA9GEW083S,5,1580496612647,"{""condition"": 0, ""counterbalance"": 0, ""internal_node_id"": ""0.0-2.0-1.1"", ""question_order"": ""[0]"", ""responses"": ""{\""Q0\"":4}"", ""rt"": 6633.160000026692, ""test_part"": ""likert"", ""time_elapsed"": 84533, ""trial_index"": 5, ""trial_type"": ""survey-likert"", ""uniqueId"": ""A2ZDEERVRN5AMC:39LOEL67OW2JCQPKC3RLBA9GEW083S""}"
A2ZDEERVRN5AMC:39LOEL67OW2JCQPKC3RLBA9GEW083S,6,1580496615384,"{""condition"": 0, ""counterbalance"": 0, ""internal_node_id"": ""0.0-2.0-0.2"", ""key_press"": 32, ""rt"": 2729.5000000158325, ""stimulus"": ""<div style=\""font-size:40px;\"">C  C  C  C  C  C  C  C  C  C                              </div>"", ""test_part"": ""test"", ""time_elapsed"": 87269, ""trial_index"": 6, ""trial_type"": ""html-keyboard-response"", ""uniqueId"": ""A2ZDEERVRN5AMC:39LOEL67OW2JCQPKC3RLBA9GEW083S""}"
A2ZDEERVRN5AMC:39LOEL67OW2JCQPKC3RLBA9GEW083S,7,1580496618623,"{""condition"": 0, ""counterbalance"": 0, ""internal_node_id"": ""0.0-2.0-1.2"", ""question_order"": ""[0]"", ""responses"": ""{\""Q0\"":9}"", ""rt"": 2737.574999977369, ""test_part"": ""likert"", ""time_elapsed"": 90509, ""trial_index"": 7, ""trial_type"": ""survey-likert"", ""uniqueId"": ""A2ZDEERVRN5AMC:39LOEL67OW2JCQPKC3RLBA9GEW083S""}"
A2ZDEERVRN5AMC:39LOEL67OW2JCQPKC3RLBA9GEW083S,8,1580496625199,"{""condition"": 0, ""counterbalance"": 0, ""internal_node_id"": ""0.0-2.0-0.3"", ""key_press"": 32, ""rt"": 6568.734999978915, ""stimulus"": ""<div style=\""font-size:40px;\"">B  B  B  A  A  A  C  B  B  C  B  B  C  A  A  B  C  A  B  B</div>"", ""test_part"": ""test"", ""time_elapsed"": 97085, ""trial_index"": 8, ""trial_type"": ""html-keyboard-response"", ""uniqueId"": ""A2ZDEERVRN5AMC:39LOEL67OW2JCQPKC3RLBA9GEW083S""}"
A2ZDEERVRN5AMC:39LOEL67OW2JCQPKC3RLBA9GEW083S,9,1580496627494,"{""condition"": 0, ""counterbalance"": 0, ""internal_node_id"": ""0.0-2.0-1.3"", ""question_order"": ""[0]"", ""responses"": ""{\""Q0\"":9}"", ""rt"": 1792.2800000524148, ""test_part"": ""likert"", ""time_elapsed"": 99380, ""trial_index"": 9, ""trial_type"": ""survey-likert"", ""uniqueId"": ""A2ZDEERVRN5AMC:39LOEL67OW2JCQPKC3RLBA9GEW083S""}"
A2ZDEERVRN5AMC:39LOEL67OW2JCQPKC3RLBA9GEW083S,10,1580496628823,"{""condition"": 0, ""counterbalance"": 0, ""internal_node_id"": ""0.0-2.0-0.4"", ""key_press"": 32, ""rt"": 1319.4199999561533, ""stimulus"": ""<div style=\""font-size:40px;\"">A  A  A  A  A  A  A  A  A  A  A  A                        </div>"", ""test_part"": ""test"", ""time_elapsed"": 100709, ""trial_index"": 10, ""trial_type"": ""html-keyboard-response"", ""uniqueId"": ""A2ZDEERVRN5AMC:39LOEL67OW2JCQPKC3RLBA9GEW083S""}"
A2ZDEERVRN5AMC:39LOEL67OW2JCQPKC3RLBA9GEW083S,11,1580496631366,"{""condition"": 0, ""counterbalance"": 0, ""internal_node_id"": ""0.0-2.0-1.4"", ""question_order"": ""[0]"", ""responses"": ""{\""Q0\"":0}"", ""rt"": 2040.7750000013039, ""test_part"": ""likert"", ""time_elapsed"": 103252, ""trial_index"": 11, ""trial_type"": ""survey-likert"", ""uniqueId"": ""A2ZDEERVRN5AMC:39LOEL67OW2JCQPKC3RLBA9GEW083S""}"
A2ZDEERVRN5AMC:39LOEL67OW2JCQPKC3RLBA9GEW083S,12,1580496641471,"{""condition"": 0, ""counterbalance"": 0, ""internal_node_id"": ""0.0-2.0-0.5"", ""key_press"": 32, ""rt"": 10097.475000016857, ""stimulus"": ""<div style=\""font-size:40px;\"">B  B  C  C  A  C  C  A  C  C  A  C                        </div>"", ""test_part"": ""test"", ""time_elapsed"": 113357, ""trial_index"": 12, ""trial_type"": ""html-keyboard-response"", ""uniqueId"": ""A2ZDEERVRN5AMC:39LOEL67OW2JCQPKC3RLBA9GEW083S""}"
A2ZDEERVRN5AMC:39LOEL67OW2JCQPKC3RLBA9GEW083S,13,1580496644471,"{""condition"": 0, ""counterbalance"": 0, ""internal_node_id"": ""0.0-2.0-1.5"", ""question_order"": ""[0]"", ""responses"": ""{\""Q0\"":7}"", ""rt"": 2497.139999992214, ""test_part"": ""likert"", ""time_elapsed"": 116356, ""trial_index"": 13, ""trial_type"": ""survey-likert"", ""uniqueId"": ""A2ZDEERVRN5AMC:39LOEL67OW2JCQPKC3RLBA9GEW083S""}"
A2ZDEERVRN5AMC:39LOEL67OW2JCQPKC3RLBA9GEW083S,14,1580496662960,"{""condition"": 0, ""counterbalance"": 0, ""internal_node_id"": ""0.0-2.0-0.6"", ""key_press"": 32, ""rt"": 18481.095000053756, ""stimulus"": ""<div style=\""font-size:40px;\"">A  A  B  B  C  B                                          </div>"", ""test_part"": ""test"", ""time_elapsed"": 134846, ""trial_index"": 14, ""trial_type"": ""html-keyboard-response"", ""uniqueId"": ""A2ZDEERVRN5AMC:39LOEL67OW2JCQPKC3RLBA9GEW083S""}"
A2ZDEERVRN5AMC:39LOEL67OW2JCQPKC3RLBA9GEW083S,15,1580496666175,"{""condition"": 0, ""counterbalance"": 0, ""internal_node_id"": ""0.0-2.0-1.6"", ""question_order"": ""[0]"", ""responses"": ""{\""Q0\"":8}"", ""rt"": 2712.8800000064075, ""test_part"": ""likert"", ""time_elapsed"": 138061, ""trial_index"": 15, ""trial_type"": ""survey-likert"", ""uniqueId"": ""A2ZDEERVRN5AMC:39LOEL67OW2JCQPKC3RLBA9GEW083S""}"
A2ZDEERVRN5AMC:39LOEL67OW2JCQPKC3RLBA9GEW083S,16,1580496670704,"{""condition"": 0, ""counterbalance"": 0, ""internal_node_id"": ""0.0-2.0-0.7"", ""key_press"": 32, ""rt"": 4520.0499999918975, ""stimulus"": ""<div style=\""font-size:40px;\"">C  C  C  C  C  C  C  B  B  B  C  A  B  B  B  B  A  A      </div>"", ""test_part"": ""test"", ""time_elapsed"": 142590, ""trial_index"": 16, ""trial_type"": ""html-keyboard-response"", ""uniqueId"": ""A2ZDEERVRN5AMC:39LOEL67OW2JCQPKC3RLBA9GEW083S""}"
A2ZDEERVRN5AMC:39LOEL67OW2JCQPKC3RLBA9GEW083S,17,1580496673975,"{""condition"": 0, ""counterbalance"": 0, ""internal_node_id"": ""0.0-2.0-1.7"", ""question_order"": ""[0]"", ""responses"": ""{\""Q0\"":5}"", ""rt"": 2768.6350000440143, ""test_part"": ""likert"", ""time_elapsed"": 145861, ""trial_index"": 17, ""trial_type"": ""survey-likert"", ""uniqueId"": ""A2ZDEERVRN5AMC:39LOEL67OW2JCQPKC3RLBA9GEW083S""}"
A2ZDEERVRN5AMC:39LOEL67OW2JCQPKC3RLBA9GEW083S,18,1580496685768,"{""condition"": 0, ""counterbalance"": 0, ""internal_node_id"": ""0.0-2.0-0.8"", ""key_press"": 32, ""rt"": 11785.93999997247, ""stimulus"": ""<div style=\""font-size:40px;\"">C  B  C  B  C  A  C  C                                    </div>"", ""test_part"": ""test"", ""time_elapsed"": 157654, ""trial_index"": 18, ""trial_type"": ""html-keyboard-response"", ""uniqueId"": ""A2ZDEERVRN5AMC:39LOEL67OW2JCQPKC3RLBA9GEW083S""}"
A2ZDEERVRN5AMC:39LOEL67OW2JCQPKC3RLBA9GEW083S,19,1580496689943,"{""condition"": 0, ""counterbalance"": 0, ""internal_node_id"": ""0.0-2.0-1.8"", ""question_order"": ""[0]"", ""responses"": ""{\""Q0\"":8}"", ""rt"": 3672.245000023395, ""test_part"": ""likert"", ""time_elapsed"": 161829, ""trial_index"": 19, ""trial_type"": ""survey-likert"", ""uniqueId"": ""A2ZDEERVRN5AMC:39LOEL67OW2JCQPKC3RLBA9GEW083S""}"
A2ZDEERVRN5AMC:39LOEL67OW2JCQPKC3RLBA9GEW083S,20,1580496693056,"{""condition"": 0, ""counterbalance"": 0, ""internal_node_id"": ""0.0-2.0-0.9"", ""key_press"": 32, ""rt"": 3106.0900000156835, ""stimulus"": ""<div style=\""font-size:40px;\"">A  B  C  B  B  A  C  B  C  B  B  A                        </div>"", ""test_part"": ""test"", ""time_elapsed"": 164942, ""trial_index"": 20, ""trial_type"": ""html-keyboard-response"", ""uniqueId"": ""A2ZDEERVRN5AMC:39LOEL67OW2JCQPKC3RLBA9GEW083S""}"
A2ZDEERVRN5AMC:39LOEL67OW2JCQPKC3RLBA9GEW083S,21,1580496696751,"{""condition"": 0, ""counterbalance"": 0, ""internal_node_id"": ""0.0-2.0-1.9"", ""question_order"": ""[0]"", ""responses"": ""{\""Q0\"":4}"", ""rt"": 3193.5649999650195, ""test_part"": ""likert"", ""time_elapsed"": 168637, ""trial_index"": 21, ""trial_type"": ""survey-likert"", ""uniqueId"": ""A2ZDEERVRN5AMC:39LOEL67OW2JCQPKC3RLBA9GEW083S""}"
A2ZDEERVRN5AMC:39LOEL67OW2JCQPKC3RLBA9GEW083S,22,1580496698303,"{""condition"": 0, ""counterbalance"": 0, ""internal_node_id"": ""0.0-2.0-0.10"", ""key_press"": 65, ""rt"": 1545.220000029076, ""stimulus"": ""<div style=\""font-size:40px;\"">C  B  B  B  B  B                                          </div>"", ""test_part"": ""test"", ""time_elapsed"": 170189, ""trial_index"": 22, ""trial_type"": ""html-keyboard-response"", ""uniqueId"": ""A2ZDEERVRN5AMC:39LOEL67OW2JCQPKC3RLBA9GEW083S""}"
A2ZDEERVRN5AMC:39LOEL67OW2JCQPKC3RLBA9GEW083S,23,1580496700976,"{""condition"": 0, ""counterbalance"": 0, ""internal_node_id"": ""0.0-2.0-1.10"", ""question_order"": ""[0]"", ""responses"": ""{\""Q0\"":9}"", ""rt"": 2169.014999992214, ""test_part"": ""likert"", ""time_elapsed"": 172861, ""trial_index"": 23, ""trial_type"": ""survey-likert"", ""uniqueId"": ""A2ZDEERVRN5AMC:39LOEL67OW2JCQPKC3RLBA9GEW083S""}"
A2ZDEERVRN5AMC:39LOEL67OW2JCQPKC3RLBA9GEW083S,24,1580496702171,"{""condition"": 0, ""counterbalance"": 0, ""internal_node_id"": ""0.0-2.0-0.11"", ""key_press"": 76, ""rt"": 1187.804999994114, ""stimulus"": ""<div style=\""font-size:40px;\"">C  C  C  C  A  C  B  C  B  C  B  C  B  C  B  C  B  C  B  C</div>"", ""test_part"": ""test"", ""time_elapsed"": 174057, ""trial_index"": 24, ""trial_type"": ""html-keyboard-response"", ""uniqueId"": ""A2ZDEERVRN5AMC:39LOEL67OW2JCQPKC3RLBA9GEW083S""}"
A2ZDEERVRN5AMC:39LOEL67OW2JCQPKC3RLBA9GEW083S,25,1580496711375,"{""condition"": 0, ""counterbalance"": 0, ""internal_node_id"": ""0.0-2.0-1.11"", ""question_order"": ""[0]"", ""responses"": ""{\""Q0\"":5}"", ""rt"": 8701.380000042263, ""test_part"": ""likert"", ""time_elapsed"": 183260, ""trial_index"": 25, ""trial_type"": ""survey-likert"", ""uniqueId"": ""A2ZDEERVRN5AMC:39LOEL67OW2JCQPKC3RLBA9GEW083S""}"
A2ZDEERVRN5AMC:39LOEL67OW2JCQPKC3RLBA9GEW083S,26,1580496713151,"{""condition"": 0, ""counterbalance"": 0, ""internal_node_id"": ""0.0-2.0-0.12"", ""key_press"": 75, ""rt"": 1767.920000012964, ""stimulus"": ""<div style=\""font-size:40px;\"">A  C  A  C  A  C  A  C                                    </div>"", ""test_part"": ""test"", ""time_elapsed"": 185037, ""trial_index"": 26, ""trial_type"": ""html-keyboard-response"", ""uniqueId"": ""A2ZDEERVRN5AMC:39LOEL67OW2JCQPKC3RLBA9GEW083S""}"
A2ZDEERVRN5AMC:39LOEL67OW2JCQPKC3RLBA9GEW083S,27,1580496719095,"{""condition"": 0, ""counterbalance"": 0, ""internal_node_id"": ""0.0-2.0-1.12"", ""question_order"": ""[0]"", ""responses"": ""{\""Q0\"":0}"", ""rt"": 5441.099999996368, ""test_part"": ""likert"", ""time_elapsed"": 190981, ""trial_index"": 27, ""trial_type"": ""survey-likert"", ""uniqueId"": ""A2ZDEERVRN5AMC:39LOEL67OW2JCQPKC3RLBA9GEW083S""}"
A2ZDEERVRN5AMC:39LOEL67OW2JCQPKC3RLBA9GEW083S,28,1580496720256,"{""condition"": 0, ""counterbalance"": 0, ""internal_node_id"": ""0.0-2.0-0.13"", ""key_press"": 75, ""rt"": 1153.740000037942, ""stimulus"": ""<div style=\""font-size:40px;\"">C  C  C  C  C  C  C  C  C  C  C  C  C  C                  </div>"", ""test_part"": ""test"", ""time_elapsed"": 192142, ""trial_index"": 28, ""trial_type"": ""html-keyboard-response"", ""uniqueId"": ""A2ZDEERVRN5AMC:39LOEL67OW2JCQPKC3RLBA9GEW083S""}"
A2ZDEERVRN5AMC:39LOEL67OW2JCQPKC3RLBA9GEW083S,29,1580496723943,"{""condition"": 0, ""counterbalance"": 0, ""internal_node_id"": ""0.0-2.0-1.13"", ""question_order"": ""[0]"", ""responses"": ""{\""Q0\"":9}"", ""rt"": 3184.8400000017136, ""test_part"": ""likert"", ""time_elapsed"": 195829, ""trial_index"": 29, ""trial_type"": ""survey-likert"", ""uniqueId"": ""A2ZDEERVRN5AMC:39LOEL67OW2JCQPKC3RLBA9GEW083S""}"
A2ZDEERVRN5AMC:39LOEL67OW2JCQPKC3RLBA9GEW083S,30,1580496743463,"{""condition"": 0, ""counterbalance"": 0, ""internal_node_id"": ""0.0-2.0-0.14"", ""key_press"": 75, ""rt"": 19510.940000007395, ""stimulus"": ""<div style=\""font-size:40px;\"">B  B  A  B  B  A  B  B                                    </div>"", ""test_part"": ""test"", ""time_elapsed"": 215349, ""trial_index"": 30, ""trial_type"": ""html-keyboard-response"", ""uniqueId"": ""A2ZDEERVRN5AMC:39LOEL67OW2JCQPKC3RLBA9GEW083S""}"
A2ZDEERVRN5AMC:39LOEL67OW2JCQPKC3RLBA9GEW083S,31,1580496747358,"{""condition"": 0, ""counterbalance"": 0, ""internal_node_id"": ""0.0-2.0-1.14"", ""question_order"": ""[0]"", ""responses"": ""{\""Q0\"":6}"", ""rt"": 3393.2700000004843, ""test_part"": ""likert"", ""time_elapsed"": 219244, ""trial_index"": 31, ""trial_type"": ""survey-likert"", ""uniqueId"": ""A2ZDEERVRN5AMC:39LOEL67OW2JCQPKC3RLBA9GEW083S""}"
A2ZDEERVRN5AMC:39LOEL67OW2JCQPKC3RLBA9GEW083S,32,1580496754647,"{""condition"": 0, ""counterbalance"": 0, ""internal_node_id"": ""0.0-2.0-0.15"", ""key_press"": 76, ""rt"": 7282.464999996591, ""stimulus"": ""<div style=\""font-size:40px;\"">A  B  B  A  A  A  A  A  A  A                              </div>"", ""test_part"": ""test"", ""time_elapsed"": 226533, ""trial_index"": 32, ""trial_type"": ""html-keyboard-response"", ""uniqueId"": ""A2ZDEERVRN5AMC:39LOEL67OW2JCQPKC3RLBA9GEW083S""}"
A2ZDEERVRN5AMC:39LOEL67OW2JCQPKC3RLBA9GEW083S,33,1580496757551,"{""condition"": 0, ""counterbalance"": 0, ""internal_node_id"": ""0.0-2.0-1.15"", ""question_order"": ""[0]"", ""responses"": ""{\""Q0\"":6}"", ""rt"": 2401.1649999883957, ""test_part"": ""likert"", ""time_elapsed"": 229437, ""trial_index"": 33, ""trial_type"": ""survey-likert"", ""uniqueId"": ""A2ZDEERVRN5AMC:39LOEL67OW2JCQPKC3RLBA9GEW083S""}"
A2ZDEERVRN5AMC:39LOEL67OW2JCQPKC3RLBA9GEW083S,34,1580496763575,"{""condition"": 0, ""counterbalance"": 0, ""internal_node_id"": ""0.0-2.0-0.16"", ""key_press"": 32, ""rt"": 6015.650000015739, ""stimulus"": ""<div style=\""font-size:40px;\"">B  B  B  B  B  B  B  B  B  B  B  B  B  B  B  B            </div>"", ""test_part"": ""test"", ""time_elapsed"": 235461, ""trial_index"": 34, ""trial_type"": ""html-keyboard-response"", ""uniqueId"": ""A2ZDEERVRN5AMC:39LOEL67OW2JCQPKC3RLBA9GEW083S""}"
A2ZDEERVRN5AMC:39LOEL67OW2JCQPKC3RLBA9GEW083S,35,1580496765318,"{""condition"": 0, ""counterbalance"": 0, ""internal_node_id"": ""0.0-2.0-1.16"", ""question_order"": ""[0]"", ""responses"": ""{\""Q0\"":4}"", ""rt"": 1241.0699999891222, ""test_part"": ""likert"", ""time_elapsed"": 237204, ""trial_index"": 35, ""trial_type"": ""survey-likert"", ""uniqueId"": ""A2ZDEERVRN5AMC:39LOEL67OW2JCQPKC3RLBA9GEW083S""}"
A2ZDEERVRN5AMC:39LOEL67OW2JCQPKC3RLBA9GEW083S,36,1580496775105,"{""condition"": 0, ""counterbalance"": 0, ""internal_node_id"": ""0.0-2.0-0.17"", ""key_press"": 76, ""rt"": 9779.42500001518, ""stimulus"": ""<div style=\""font-size:40px;\"">C  B  C  C  B  C  C  B  C  C  B  C  C  B  C  C  B  C  C  B</div>"", ""test_part"": ""test"", ""time_elapsed"": 246991, ""trial_index"": 36, ""trial_type"": ""html-keyboard-response"", ""uniqueId"": ""A2ZDEERVRN5AMC:39LOEL67OW2JCQPKC3RLBA9GEW083S""}"
A2ZDEERVRN5AMC:39LOEL67OW2JCQPKC3RLBA9GEW083S,37,1580496777352,"{""condition"": 0, ""counterbalance"": 0, ""internal_node_id"": ""0.0-2.0-1.17"", ""question_order"": ""[0]"", ""responses"": ""{\""Q0\"":9}"", ""rt"": 1744.8949999525212, ""test_part"": ""likert"", ""time_elapsed"": 249237, ""trial_index"": 37, ""trial_type"": ""survey-likert"", ""uniqueId"": ""A2ZDEERVRN5AMC:39LOEL67OW2JCQPKC3RLBA9GEW083S""}"
